Accelerometer X Axis,Accelerometer Y Axis,Accelerometer Z Axis
-1.656787633895874,4.290409564971924,8.645462036132812
-1.623268723487854,4.311957359313965,8.678980827331543
-1.7381904125213623,4.256890773773193,8.75080680847168
-1.7549498081207275,4.247313976287842,8.729259490966797
-1.6711528301239014,4.285621166229248,8.664615631103516
-1.577778935432434,4.288015365600586,8.59997272491455
-1.5873557329177856,4.185064792633057,8.674192428588867
-1.6519991159439087,4.0964789390563965,8.683769226074219
-1.6759412288665771,4.003105163574219,8.647856712341309
-1.7166426181793213,4.1180267333984375,8.683769226074219
-1.702277421951294,4.031835556030273,8.736441612243652
-1.6950948238372803,4.125209331512451,8.640673637390137
-1.723825216293335,4.10366153717041,8.700529098510742
-1.644816517829895,4.146757125854492,8.667010307312012
-1.6304513216018677,4.067748546600342,8.549694061279297
-1.659181833267212,4.0964789390563965,8.588001251220703
-1.7142484188079834,3.998316764831543,8.547300338745117
-1.800439715385437,4.055777549743652,8.585607528686523
-1.7262194156646729,4.041412353515625,8.69334602355957
-1.699883222579956,4.0749311447143555,8.628703117370605
-1.6352397203445435,4.084507942199707,8.700529098510742
-1.742978811264038,4.089296340942383,8.647856712341309
-1.6927006244659424,4.027047157287598,8.640673637390137
-1.6280571222305298,4.122815132141113,8.688557624816895
-1.6208745241165161,4.146757125854492,8.683769226074219
-1.6376339197158813,4.225766181945801,8.662221908569336
-1.6376339197158813,4.122815132141113,8.688557624816895
-1.6903064250946045,4.065354347229004,8.62630844116211
-1.6376339197158813,4.141968727111816,8.56645393371582
-1.6639702320098877,4.036623954772949,8.588001251220703
-1.647210717201233,4.098873138427734,8.640673637390137
-1.678335428237915,4.173093795776367,8.645462036132812
-1.5873557329177856,4.230554580688477,8.681375503540039
-1.6280571222305298,4.182670593261719,8.5903959274292
-1.580173134803772,4.2329487800598145,8.65743350982666
-1.6663644313812256,4.0533833503723145,8.686163902282715
-1.6663644313812256,4.094084739685059,8.686163902282715
-1.7381904125213623,4.098873138427734,8.643068313598633
-1.647210717201233,4.110844135284424,8.621520042419434
-1.5945383310317993,4.163516521453857,8.664615631103516
-1.6160861253738403,4.1395745277404785,8.621520042419434
-1.6759412288665771,4.0749311447143555,8.583212852478027
-1.623268723487854,4.197035789489746,8.62630844116211
-1.625662922859192,4.122815132141113,8.561665534973145
-1.6280571222305298,4.101267337799072,8.547300338745117
-1.6304513216018677,4.079719543457031,8.525752067565918
-1.659181833267212,4.1611223220825195,8.65743350982666
-1.6615760326385498,4.094084739685059,8.583212852478027
-1.6639702320098877,4.062960147857666,8.633491516113281
-1.6855180263519287,4.223371982574463,8.688557624816895
-1.623268723487854,4.194641590118408,8.743624687194824
-1.6687586307525635,4.173093795776367,8.707711219787598
-1.656787633895874,4.213795185089111,8.635885238647461
-1.580173134803772,4.247313976287842,8.556877136230469
-1.5610195398330688,4.055777549743652,8.518569946289062
-1.4293384552001953,3.7158010005950928,8.554482460021973
-1.525106430053711,3.7612907886505127,8.578424453735352
-1.556231141090393,3.8163576126098633,8.7268648147583
-1.53707754611969,3.847482204437256,8.791508674621582
-1.5969325304031372,3.7828385829925537,8.927978515625
-1.7190368175506592,3.974374771118164,8.939949035644531
-1.702277421951294,4.041412353515625,8.848969459533691
-1.5538369417190552,3.9217023849487305,8.868123054504395
-1.4748282432556152,4.015076160430908,8.856152534484863
-1.4676456451416016,4.055777549743652,8.820239067077637
-1.3287819623947144,4.067748546600342,8.868123054504395
-1.3503297567367554,4.120420932769775,8.858546257019043
-1.4676456451416016,4.230554580688477,8.865729331970215
-1.4245500564575195,4.218583583831787,8.980650901794434
-1.4269442558288574,4.141968727111816,8.858546257019043
-1.4053963422775269,4.20421838760376,8.875306129455566
-1.3000515699386597,4.345476150512695,8.920795440673828
-1.1516109704971313,4.395754337310791,8.877699851989746
-1.1204863786697388,4.252102375030518,8.966285705566406
-1.0678139925003052,4.288015365600586,9.155426979064941
-1.137245774269104,4.326322555541992,9.299078941345215
-1.259350061416626,4.338293552398682,9.531316757202148
-1.4389152526855469,4.462791919708252,9.63187313079834
-1.359906554222107,4.501099109649658,9.610325813293457
-1.3623007535934448,4.613626480102539,9.490615844726562
-1.3886369466781616,4.623203277587891,9.72285270690918
-1.5729905366897583,4.886565685272217,9.995792388916016
-1.86508309841156,5.288791656494141,10.17296314239502
-1.7836803197860718,5.592854976654053,10.587160110473633
-1.6543933153152466,5.609614372253418,10.855310440063477
-1.5155296325683594,5.463568210601807,11.283872604370117
-1.4867992401123047,5.382165431976318,11.523292541503906
-1.4963760375976562,5.233725070953369,11.772290229797363
-1.5490485429763794,5.250484466552734,11.724405288696289
-1.400607943534851,5.4228668212890625,11.729193687438965
-1.158793568611145,5.013458251953125,11.350910186767578
-1.3215993642807007,5.322310447692871,11.109095573425293
-1.4652514457702637,5.815515995025635,11.027692794799805
-1.623268723487854,6.086060523986816,11.051634788513184
-1.259350061416626,6.088454723358154,11.183316230773926
-0.8571242094039917,6.356605529785156,10.800244331359863
-1.1180921792984009,5.588066577911377,10.771512985229492
-1.3407529592514038,5.552153587341309,11.025299072265625
-0.7924807667732239,5.978321552276611,11.025299072265625
-0.5027823448181152,5.817910194396973,10.714052200317383
-0.5195417404174805,5.329493045806885,10.891223907470703
-0.5889736413955688,4.965574264526367,10.702081680297852
-0.6177040338516235,4.908113479614258,10.35252857208252
-0.44532153010368347,5.044582843780518,9.945513725280762
-0.09576806426048279,5.188235282897949,9.610325813293457
0.17477671802043915,5.257667064666748,9.39245319366455
0.45250412821769714,5.214571475982666,9.27034854888916
0.47405192255973816,4.929661273956299,9.126696586608887
0.40222588181495667,4.680664539337158,8.925583839416504
0.47644615173339844,4.4723687171936035,8.7268648147583
0.6847416758537292,4.316745758056641,8.49941635131836
0.9313444495201111,4.256890773773193,8.300697326660156
1.0845733880996704,4.197035789489746,8.164227485656738
1.4413094520568848,4.225766181945801,8.003816604614258
1.6519991159439087,4.1874589920043945,7.920019149780273
1.7334020137786865,4.220977783203125,7.752425193786621
1.7908629179000854,4.20421838760376,7.6351094245910645
1.8794482946395874,4.132391929626465,7.4770917892456055
1.9297266006469727,4.223371982574463,7.237671852111816
2.1595699787139893,4.1395745277404785,6.797138690948486
2.2601263523101807,3.9695863723754883,6.744466304779053
2.3798365592956543,4.065354347229004,6.670246124267578
2.4612393379211426,4.110844135284424,6.411672115325928
2.516305923461914,4.122815132141113,6.236895561218262
2.7557260990142822,4.1180267333984375,5.940014362335205
2.851494312286377,4.2760443687438965,5.87776517868042
2.999934673309326,4.402936935424805,5.729324817657471
3.2154128551483154,4.331110954284668,5.521028995513916
3.380612850189209,4.256890773773193,5.451597213745117
3.4955344200134277,4.122815132141113,5.238513469696045
3.6343982219696045,4.173093795776367,5.207388877868652
3.708618402481079,4.168305397033691,5.145139217376709
3.801992416381836,4.261679172515869,5.1810526847839355
3.8139634132385254,4.32871675491333,5.094861030578613
3.799597978591919,4.2329487800598145,4.944026470184326
3.995922565460205,4.067748546600342,4.896142482757568
3.931279182434082,4.005499362945557,4.8267107009887695
3.971980571746826,3.928884983062744,4.757278919219971
4.036623954772949,3.9408559799194336,4.745307922363281
4.039018154144287,3.778050184249878,4.675876140594482
4.072536945343018,3.6535518169403076,4.592078685760498
4.089296340942383,3.5218706130981445,4.649539470672607
4.1611223220825195,3.442862033843994,4.687847137451172
4.240131378173828,3.3279404640197754,4.637568473815918
4.244919776916504,3.3662476539611816,4.733336925506592
4.311957359313965,3.4189200401306152,4.8267107009887695
4.323928356170654,3.2968156337738037,4.733336925506592
4.364629745483398,3.2154128551483154,4.644751071929932
4.28322696685791,3.1675288677215576,4.548983097076416
4.448426723480225,3.045424461364746,4.49870491027832
4.484339714050293,2.920926094055176,4.5154643058776855
4.5394062995910645,2.738966703414917,4.486733913421631
4.716577529907227,2.406172752380371,4.443638324737549
4.953603267669678,2.0901381969451904,4.4508209228515625
4.948814868927002,1.9823989868164062,4.55616569519043
5.051765441894531,1.9608511924743652,4.927267074584961
4.975151062011719,1.9153614044189453,5.0876784324646
4.838681697845459,1.8291701078414917,4.967968463897705
4.757278919219971,1.8267759084701538,4.948814868927002
4.60165548324585,1.6304513216018677,5.082890033721924
4.6950297355651855,1.5705963373184204,5.193023681640625
4.757278919219971,1.338358759880066,5.305551052093506
5.073313236236572,1.2018892765045166,5.403713226318359
5.097255229949951,0.9193734526634216,5.537788391113281
4.929661273956299,0.7230489253997803,5.779603004455566
4.963180065155029,0.6368576288223267,6.071695327758789
4.838681697845459,0.5363011956214905,6.332663536071777
4.5825018882751465,0.43335050344467163,6.588842868804932
4.467580318450928,0.40701428055763245,6.710947513580322
4.467580318450928,0.3758896589279175,6.98628044128418
4.637568473815918,0.3878606855869293,7.038952827453613
4.812345504760742,0.5123591423034668,7.151480674743652
4.7189717292785645,0.5123591423034668,7.331045627593994
4.623203277587891,0.4884171485900879,7.450755596160889
4.513070106506348,0.2585737705230713,7.60637903213501
4.460397720336914,0.12449848651885986,7.924807548522949
4.355052947998047,0.11971008777618408,8.339004516601562
4.323928356170654,0.18914192914962769,8.540117263793945
4.299986362457275,0.11252748221158981,8.827422142028809
4.46518611907959,-0.05267243832349777,8.796297073364258
4.474762916564941,0.014365210197865963,9.047688484191895
4.314351558685303,0.12928688526153564,9.39245319366455
4.146757125854492,0.2561795711517334,9.59596061706543
4.268861770629883,0.14604631066322327,9.890447616577148
4.314351558685303,-0.20111294090747833,9.914389610290527
4.182670593261719,-0.5027823448181152,10.093954086303711
3.9839515686035156,-0.5602431893348694,10.230423927307129
3.825934410095215,-0.42377370595932007,10.867281913757324
3.8163576126098633,-0.0933738648891449,11.164162635803223
3.912125587463379,-0.14844051003456116,11.113883972167969
3.9600095748901367,-0.4836287498474121,10.910377502441406
3.7708675861358643,-0.5578489899635315,10.891223907470703
3.529053211212158,-0.6751648783683777,10.730812072753906
3.272873640060425,-0.849941611289978,10.90798282623291
3.2848446369171143,-0.8738836050033569,11.714828491210938
3.3255462646484375,-0.9864110946655273,12.040440559387207
3.272873640060425,-1.3766659498214722,12.179304122924805
3.0789434909820557,-1.6927006244659424,12.27507209777832
2.9735984802246094,-1.6112977266311646,12.270283699035645
2.8107926845550537,-1.4963760375976562,12.15057373046875
2.626439332962036,-1.5322890281677246,11.87763500213623
2.4205379486083984,-1.6280571222305298,11.688492774963379
2.1930887699127197,-1.7741034030914307,12.078747749328613
1.987187385559082,-1.3000515699386597,12.42111873626709
1.8914192914962769,-0.9768342971801758,12.72996997833252
1.8914192914962769,-0.5339069962501526,12.70602798461914
1.9919757843017578,-0.14844051003456116,12.612654685974121
1.9823989868164062,0.002394201699644327,12.315773963928223
1.9536685943603516,0.15801730751991272,12.174515724182129
1.8579005002975464,-0.038307227194309235,12.246341705322266
1.6711528301239014,-0.3495534360408783,12.356474876403809
1.45806884765625,-0.272938996553421,12.797008514404297
1.3000515699386597,-0.12449848651885986,13.019668579101562
1.091755986213684,-0.021547814831137657,12.995726585388184
1.0558429956436157,0.07900865375995636,12.830527305603027
0.9050082564353943,0.24899697303771973,12.72996997833252
1.0582371950149536,-0.10055647045373917,12.263101577758789
1.1276689767837524,1.1803414821624756,12.806585311889648
0.7924807667732239,1.2880805730819702,12.179304122924805
0.6943184733390808,0.27054479718208313,12.351686477661133
0.828393816947937,-0.06464344263076782,12.641385078430176
0.751779317855835,0.6871358752250671,12.655750274658203
0.629675030708313,1.0773907899856567,12.29662036895752
0.4141969084739685,1.414973258972168,12.078747749328613
0.44532153010368347,1.434126853942871,11.959037780761719
0.4908113479614258,1.9823989868164062,12.073959350585938
0.7398083209991455,2.4205379486083984,12.239158630371094
1.2114660739898682,2.454056739807129,12.229581832885742
1.3239935636520386,2.3918075561523438,12.279860496520996
1.0965443849563599,2.03507137298584,12.176909446716309
0.933738648891449,1.9273324012756348,12.09311294555664
0.811634361743927,2.0925323963165283,11.894393920898438
0.6823474764823914,2.3942017555236816,11.676521301269531
0.8307880163192749,2.5067291259765625,11.566388130187988
0.9768342971801758,2.63362193107605,11.554417610168457
1.2306196689605713,2.889801502227783,11.544840812683105
1.3455413579940796,3.098097085952759,11.444284439086914
1.501164436340332,3.201047658920288,11.341333389282227
1.556231141090393,3.3231520652770996,11.21204662322998
1.3718775510787964,3.2992098331451416,11.080365180969238
1.036689281463623,3.2393548488616943,10.972626686096191
0.6871358752250671,3.201047658920288,10.69489860534668
0.6631938815116882,3.2178070545196533,10.625467300415039
0.7086837291717529,3.490746021270752,10.42195987701416
0.8643068075180054,3.6511576175689697,10.338163375854492
0.9648633003234863,3.892971992492676,10.180145263671875
0.8236053586006165,4.1180267333984375,9.794678688049316
0.5722141861915588,4.3406877517700195,9.787496566772461
0.5434837937355042,4.4508209228515625,9.674968719482422
0.5961562395095825,4.54419469833374,9.478644371032715
0.5913678407669067,4.513070106506348,9.284713745117188
0.5889736413955688,4.685452938079834,9.124302864074707
0.5530605912208557,5.018246650695801,8.935160636901855
0.6272808313369751,5.188235282897949,8.765172004699707
0.7589619159698486,5.370194435119629,8.5903959274292
0.9361328482627869,5.458779811859131,8.506598472595215
1.0869675874710083,5.56173038482666,8.35336971282959
1.194706678390503,5.702988624572754,8.29830265045166
1.1994950771331787,5.8657941818237305,8.10437297821045
1.1971008777618408,5.770026206970215,7.908048152923584
1.2641384601593018,5.705382823944092,7.654263019561768
1.3239935636520386,5.7772088050842285,7.51779317855835
1.4221558570861816,5.937620162963867,7.383718013763428
1.6855180263519287,6.0621185302734375,7.101202011108398
1.9033904075622559,6.090848922729492,6.904877662658691
2.0901381969451904,5.966350555419922,6.842628479003906
2.056619167327881,5.801150798797607,6.691793918609619
2.0231003761291504,5.736507415771484,6.672640323638916
2.0470423698425293,5.868188381195068,6.610390663146973
2.164358377456665,5.817910194396973,6.447585105895996
2.2194249629974365,5.762843608856201,6.248866558074951
2.4133553504943848,5.746084213256836,6.098031520843506
2.454056739807129,5.896918773651123,5.91128396987915
2.4660277366638184,5.949591159820557,5.861005783081055
2.5713725090026855,5.87776517868042,5.743690013885498
2.6575639247894287,5.985504150390625,5.66228723526001
2.7748796939849854,5.789179801940918,5.595249176025391
2.985569477081299,5.781997203826904,5.513846397399902
3.0095114707946777,5.743690013885498,5.492298603057861
3.112462282180786,5.602431774139404,5.518634796142578
3.2968156337738037,5.492298603057861,5.473145008087158
3.35667085647583,5.238513469696045,5.310339450836182
3.421314239501953,5.092466831207275,5.0900726318359375
3.4308910369873047,5.039794445037842,4.953603267669678
3.600879430770874,4.817133903503418,4.764461517333984
3.6535518169403076,4.55616569519043,4.793191909790039
3.691859006881714,4.395754337310791,4.771644115447998
3.7660791873931885,4.367023944854736,4.685452938079834
3.7900211811065674,4.005499362945557,4.704606533050537
3.907337188720703,3.8283286094665527,4.460397720336914
4.036623954772949,3.6511576175689697,4.548983097076416
4.110844135284424,3.5170822143554688,4.479551315307617
4.264073371887207,3.4524388313293457,4.438849925994873
4.32871675491333,3.5673606395721436,4.350264549255371
4.431667327880859,3.6320040225982666,4.390965938568115
4.55616569519043,3.7229835987091064,4.3191399574279785
4.441244125366211,3.794809579849243,4.264073371887207
4.4508209228515625,3.7445313930511475,4.280832767486572
4.632780075073242,3.627215623855591,4.323928356170654
4.8722004890441895,3.490746021270752,4.299986362457275
4.898536682128906,3.359065055847168,4.378994941711426
4.795586109161377,3.1316158771514893,4.376600742340088
4.709394931793213,3.043030261993408,4.405331134796143
4.867412090301514,3.047818660736084,4.474762916564941
5.061342239379883,3.203441858291626,4.484339714050293
5.185841083526611,3.136404275894165,4.355052947998047
5.3342814445495605,3.0885202884674072,4.347870349884033
5.406107425689697,2.846705913543701,4.491522312164307
5.329493045806885,2.6886885166168213,4.563348293304443
5.20978307723999,2.4636335372924805,4.606443881988525
5.020640850067139,2.166752576828003,4.838681697845459
5.035006046295166,2.2864625453948975,5.070919036865234
5.015852451324463,2.4157495498657227,5.200206279754639
5.035006046295166,2.47560453414917,5.370194435119629
5.078101634979248,2.5282769203186035,5.48272180557251
5.006275653839111,2.655169725418091,5.544970989227295
4.8267107009887695,2.626439332962036,5.614402770996094
4.613626480102539,2.7030537128448486,5.671864032745361
4.474762916564941,2.920926094055176,5.758055210113525
4.558559894561768,3.0310592651367188,6.081272125244141
4.649539470672607,3.2154128551483154,6.129156112670898
4.72376012802124,3.1292216777801514,6.186617374420166
4.869806289672852,2.920926094055176,6.210559368133545
4.831499099731445,2.760514497756958,6.339846134185791
4.786009311676025,2.8179752826690674,6.452373504638672
4.757278919219971,3.021482467651367,6.658275127410889
4.742913722991943,3.2178070545196533,6.809109687805176
4.8482584953308105,3.2800562381744385,6.878541469573975
4.912901878356934,3.0765492916107178,7.16584587097168
5.04218864440918,3.0190882682800293,7.3238630294799805
5.12119722366333,2.978386878967285,7.544129371643066
4.666299343109131,2.535459518432617,7.790732383728027
4.316745758056641,2.427720546722412,8.008605003356934
4.036623954772949,2.209848165512085,8.259995460510254
3.7277719974517822,2.0254945755004883,8.485051155090332
3.7253777980804443,1.7932571172714233,8.71489429473877
3.7924153804779053,1.8315643072128296,9.069235801696777
3.8307228088378906,1.8626888990402222,9.21288776397705
4.031835556030273,1.8387469053268433,9.253589630126953
4.113238334655762,1.5131354331970215,9.433155059814453
4.041412353515625,1.4772224426269531,9.895236015319824
3.974374771118164,1.3215993642807007,10.134655952453613
3.821146011352539,1.2210428714752197,10.307038307189941
3.931279182434082,1.1013327836990356,10.400412559509277
3.7660791873931885,0.9002198576927185,10.409989356994629
3.6607344150543213,0.8259995579719543,10.290278434753418
3.469198226928711,0.8164227604866028,10.194510459899902
3.2106244564056396,0.8236053586006165,10.431536674499512
2.9664158821105957,0.7852981686592102,10.625467300415039
3.00711727142334,0.8954314589500427,10.891223907470703
3.160346269607544,0.7852981686592102,10.718840599060059
3.4835634231567383,0.45489832758903503,10.967838287353516
3.1244332790374756,0.4381389021873474,11.396400451660156
2.63362193107605,0.31603461503982544,11.264719009399414
2.4851813316345215,0.5793967843055725,11.346121788024902
2.231395959854126,0.9313444495201111,11.317391395568848
2.1547815799713135,1.0199298858642578,11.231200218200684
2.0638017654418945,0.8930372595787048,11.015722274780273
2.1380221843719482,0.6919242739677429,10.977415084838867
2.1571757793426514,0.4165911078453064,11.03248119354248
2.22660756111145,0.20111294090747833,10.979808807373047
2.298433542251587,-0.05267243832349777,10.927136421203613
2.2649147510528564,-0.2777273952960968,11.092336654663086
1.9704279899597168,-0.17717093229293823,11.17852783203125
1.7525556087493896,-0.15322890877723694,11.398794174194336
1.6136919260025024,-0.016759412363171577,11.489773750305176
1.6280571222305298,0.06703764945268631,11.499350547790527
1.7525556087493896,0.028730420395731926,11.348516464233398
1.8531121015548706,-0.1412578970193863,11.204863548278809
1.7860745191574097,-0.22026655077934265,11.125855445861816
1.723825216293335,-0.5291185975074768,10.910377502441406
1.5753847360610962,-0.5123591423034668,11.312602996826172
1.4987702369689941,-0.2561795711517334,11.401188850402832
1.1276689767837524,-0.44532153010368347,11.710040092468262
1.0223240852355957,-0.3998316824436188,11.865663528442383
0.8954314589500427,-0.05746084079146385,11.841721534729004
0.9624691009521484,0.05746084079146385,11.777078628540039
0.9552865028381348,0.06224924325942993,11.554417610168457
0.8762778043746948,-0.05027823522686958,11.566388130187988
0.9050082564353943,0.019153613597154617,11.705251693725586
0.8882488012313843,0.33758243918418884,11.741165161132812
0.9145850539207458,0.28730419278144836,11.63342571258545
0.950498104095459,0.07900865375995636,11.561599731445312
0.8164227604866028,0.12928688526153564,11.44907283782959
0.7015010714530945,0.4189853072166443,11.537657737731934
0.5410895943641663,0.7469909191131592,11.45146656036377
0.4812345504760742,1.0127472877502441,11.33654499053955
0.44532153010368347,1.1228805780410767,11.341333389282227
0.6344634294509888,1.2880805730819702,11.39161205291748
0.7254431247711182,1.357512354850769,11.432312965393066
0.9193734526634216,1.7286136150360107,11.592724800109863
0.8667010068893433,2.0254945755004883,11.769895553588867
0.6153098344802856,1.9153614044189453,11.848904609680176
0.5578489899635315,1.8986018896102905,11.96861457824707
0.5171475410461426,1.920149803161621,11.96861457824707
0.5530605912208557,2.319981336593628,11.887211799621582
0.667982280254364,2.5905263423919678,11.920730590820312
0.7038952708244324,2.9664158821105957,11.903970718383789
0.8379706144332886,2.999934673309326,11.93509578704834
0.8523358106613159,2.983175277709961,12.09311294555664
0.9648633003234863,2.96162748336792,12.133813858032227
0.8523358106613159,2.9472622871398926,12.20803451538086
0.9241618514060974,2.9328970909118652,12.052411079406738
0.8643068075180054,2.9233202934265137,12.02607536315918
0.7733271718025208,2.9664158821105957,11.875240325927734
0.7709329724311829,2.808398485183716,11.827356338500977
0.8044517636299133,2.8107926845550537,11.676521301269531
0.8906430602073669,2.913743495941162,11.51611042022705
1.0773907899856567,2.911349296569824,11.386823654174805
1.2449848651885986,2.7940332889556885,11.331756591796875
1.3623007535934448,2.7892448902130127,11.386823654174805
1.256955862045288,2.851494312286377,11.307814598083496
1.072602391242981,2.7222073078155518,11.202469825744629
0.9169792532920837,2.7126305103302,11.130643844604492
0.9983820915222168,2.9281086921691895,11.027692794799805
1.1037269830703735,3.098097085952759,10.888829231262207
1.0678139925003052,3.5218706130981445,10.6925048828125
1.0127472877502441,3.7421371936798096,10.551246643066406
1.0247182846069336,3.8283286094665527,10.438719749450684
1.0965443849563599,3.9480385780334473,10.24000072479248
0.9959878921508789,3.9671921730041504,10.029311180114746
1.0462661981582642,4.079719543457031,9.801861763000488
1.0893617868423462,4.2975921630859375,9.624691009521484
1.1037269830703735,4.520252704620361,9.418789863586426
1.2282254695892334,4.73573112487793,9.279925346374512
1.357512354850769,4.8602294921875,9.02135181427002
1.400607943534851,4.819528102874756,8.83939266204834
1.4053963422775269,4.941632270812988,8.571242332458496
1.5322890281677246,5.0900726318359375,8.432378768920898
1.5705963373184204,5.228936672210693,8.192957878112793
1.644816517829895,5.446808815002441,7.967903137207031
1.7334020137786865,5.547365188598633,7.783549785614014
1.8914192914962769,5.614402770996094,7.673416614532471
2.075772762298584,5.540182590484619,7.47230339050293
2.030282974243164,5.453991413116455,7.280767440795898
2.1380221843719482,5.492298603057861,7.117961883544922
2.188300371170044,5.552153587341309,6.981492042541504
2.5522189140319824,5.509057998657227,6.521805286407471
2.6216509342193604,5.518634796142578,6.289567947387695
2.650381326675415,5.480327606201172,6.222530364990234
2.607285737991333,5.48272180557251,6.011840343475342
2.6144683361053467,5.382165431976318,5.904101371765137
2.676717519760132,5.303156852722168,5.870582580566406
2.7317841053009033,5.305551052093506,5.75326681137085
2.9017724990844727,5.252878665924072,5.580883979797363
3.0166940689086914,5.240907669067383,5.367800235748291
3.141192674636841,5.3342814445495605,5.2911858558654785
3.19865345954895,5.341464042663574,5.1116204261779785
3.3016040325164795,5.2696380615234375,4.963180065155029
3.3494882583618164,5.044582843780518,4.838681697845459
3.5218706130981445,5.04218864440918,4.69024133682251
3.73016619682312,5.183446884155273,4.721365928649902
3.825934410095215,5.2911858558654785,4.606443881988525
3.9049429893493652,5.243301868438721,4.491522312164307
4.134786128997803,5.240907669067383,4.3406877517700195
4.1395745277404785,5.080495834350586,4.20421838760376
4.259284973144531,4.908113479614258,4.122815132141113
4.314351558685303,4.857835292816162,4.010287761688232
4.496310710906982,4.522646903991699,3.9695863723754883
4.532223701477051,4.388571739196777,3.8762125968933105
4.436455726623535,4.20421838760376,3.8786067962646484
4.627991676330566,4.194641590118408,3.8283286094665527
4.793191909790039,4.194641590118408,3.9025487899780273
4.93923807144165,4.261679172515869,3.9432501792907715
4.975151062011719,4.163516521453857,4.019864559173584
4.989516258239746,4.20421838760376,4.1180267333984375
5.145139217376709,4.19224739074707,4.158728122711182
5.238513469696045,4.2760443687438965,4.19224739074707
5.257667064666748,4.3406877517700195,4.326322555541992
5.128379821777344,4.350264549255371,4.378994941711426
5.080495834350586,4.343081951141357,4.431667327880859
5.149928092956543,4.242525577545166,4.462791919708252
5.145139217376709,4.086902141571045,4.608838081359863
5.348646640777588,4.010287761688232,4.616020679473877
5.324704647064209,4.072536945343018,4.709394931793213
5.509057998657227,4.129997730255127,4.759673118591309
5.456385612487793,4.120420932769775,4.853046894073486
5.451597213745117,4.089296340942383,4.7836151123046875
5.468356609344482,3.9456443786621094,4.757278919219971
5.341464042663574,3.7660791873931885,4.757278919219971
5.360617637634277,3.4739866256713867,5.070919036865234
5.360617637634277,3.246537446975708,5.135562419891357
5.588066577911377,2.9735984802246094,5.1331682205200195
5.700594425201416,2.786850690841675,5.109226226806641
5.683835029602051,2.7030537128448486,5.080495834350586
5.418078422546387,2.7078421115875244,4.953603267669678
5.250484466552734,2.6575639247894287,5.054159641265869
5.106832027435303,2.583343744277954,5.257667064666748
5.197812080383301,2.427720546722412,5.463568210601807
5.398924827575684,2.1715409755706787,5.463568210601807
5.793968200683594,1.9393033981323242,5.671864032745361
5.896918773651123,1.845929503440857,5.750872611999512
5.671864032745361,1.7573440074920654,5.710171222686768
5.3797712326049805,1.7956513166427612,5.635950565338135
5.109226226806641,1.8746598958969116,5.6191911697387695
5.097255229949951,2.013523578643799,5.623979568481445
5.351040840148926,1.9991583824157715,5.621585369110107
5.432443618774414,1.7549498081207275,5.674258232116699
5.420472621917725,1.4269442558288574,5.702988624572754
5.410895824432373,1.1420341730117798,5.75326681137085
5.298368453979492,0.950498104095459,6.042964935302734
5.4013190269470215,0.8044517636299133,6.165069580078125
5.372588634490967,0.6631938815116882,6.1315507888793945
5.116408824920654,0.5506663918495178,6.1315507888793945
4.702212333679199,0.5434837937355042,5.96874475479126
4.338293552398682,0.4381389021873474,5.9088897705078125
4.0749311447143555,0.42616790533065796,5.913678169250488
4.10366153717041,0.24899697303771973,5.92325496673584
4.371812343597412,-0.05027823522686958,6.057330131530762
4.7620673179626465,-0.6512228846549988,6.335057735443115
5.037400245666504,-1.256955862045288,6.6127848625183105
4.903325080871582,-1.778891921043396,6.919242858886719
4.522646903991699,-1.8746598958969116,7.252037048339844
3.971980571746826,-1.7501614093780518,7.659051418304443
3.442862033843994,-1.3455413579940796,8.015787124633789
3.406949043273926,-1.2234370708465576,8.427590370178223
3.4332852363586426,-1.0678139925003052,8.647856712341309
3.4380736351013184,-1.2737152576446533,8.83939266204834
3.6774938106536865,-1.5610195398330688,9.006986618041992
3.9025487899780273,-1.5753847360610962,9.440337181091309
3.955221176147461,-1.2018892765045166,9.706093788146973
4.01268196105957,-0.9888052940368652,9.952696800231934
3.7469255924224854,-0.9816226959228516,11.063606262207031
3.6080620288848877,-0.9193734526634216,11.865663528442383
3.397372245788574,-0.8523358106613159,12.176909446716309
3.2393548488616943,-0.9552865028381348,12.346898078918457
3.375824451446533,-1.070208191871643,12.315773963928223
3.318363666534424,-1.1755530834197998,12.449849128723145
3.335123062133789,-0.9911994934082031,12.813767433166504
3.2585084438323975,-0.6488286852836609,12.830527305603027
3.28963303565979,-0.4381389021873474,13.120224952697754
3.251325845718384,0.17477671802043915,13.328520774841309
3.2106244564056396,0.5315127968788147,13.297396659851074
2.894589900970459,0.7134721279144287,13.2710599899292
2.741360902786255,0.6344634294509888,13.225569725036621
2.561795711517334,0.6177040338516235,13.148955345153809
2.4229321479797363,0.507570743560791,12.737153053283691
2.604891538619995,0.31124621629714966,12.509703636169434
2.559401512145996,0.19153612852096558,12.509703636169434
2.964021682739258,0.42377370595932007,12.562376022338867
3.3877954483032227,0.5339069962501526,12.521675109863281
3.3638534545898438,0.7445967197418213,12.313379287719727
3.0310592651367188,0.5626373887062073,12.24155330657959
2.6144683361053467,0.5147533416748047,12.09550666809082
1.9584569931030273,0.667982280254364,11.90157699584961
1.8339585065841675,0.9433154463768005,11.793837547302246
1.7717092037200928,1.036689281463623,11.702857971191406
1.6543933153152466,1.2665326595306396,11.738770484924316
1.5275006294250488,1.3479355573654175,11.580753326416016
1.4484920501708984,1.070208191871643,11.494562149047852
1.1971008777618408,0.9361328482627869,11.264719009399414
1.0821791887283325,0.7972691655158997,11.298237800598145
1.0821791887283325,0.5913678407669067,11.307814598083496
1.0414776802062988,0.14365209639072418,11.101913452148438
1.0223240852355957,-0.23942017555236816,11.21444034576416
1.0199298858642578,-0.646434485912323,11.044452667236328
0.9385270476341248,-0.7374141216278076,10.869675636291504
0.790086567401886,-0.35673606395721436,10.730812072753906
0.8236053586006165,-0.16998831927776337,10.426748275756836
0.6248866319656372,-0.1388636976480484,10.168174743652344
0.5650315880775452,-0.19153612852096558,10.005369186401367
0.6871358752250671,0.023942016065120697,9.885659217834473
0.7996633648872375,0.11252748221158981,9.744400978088379
0.8882488012313843,0.13168109953403473,9.737217903137207
0.950498104095459,-0.07661445438861847,9.552865028381348
0.8858546018600464,-0.3902548849582672,9.461885452270508
0.9074024558067322,-0.2825157940387726,9.32302188873291
0.8403648138046265,-0.05267243832349777,9.339780807495117
0.7852981686592102,0.4429273009300232,9.282320022583008
0.730231523513794,0.4189853072166443,9.258378028869629
0.9241618514060974,0.5219359993934631,9.174580574035645
1.0055646896362305,0.5315127968788147,9.083600997924805
0.912190854549408,0.7326257228851318,9.071630477905273
0.7876923680305481,0.7398083209991455,9.342175483703613
0.7541735172271729,0.730231523513794,9.35654067993164
0.6823474764823914,0.9241618514060974,9.531316757202148
0.6655880808830261,1.0007762908935547,9.461885452270508
0.6488286852836609,0.9409212470054626,9.677363395690918
0.5123591423034668,0.8738836050033569,9.852140426635742
0.524330198764801,0.9026140570640564,9.959878921508789
0.5339069962501526,0.8331822156906128,10.134655952453613
0.5195417404174805,0.6607996821403503,10.225635528564453
0.6368576288223267,0.5770025849342346,10.417171478271484
0.6703764796257019,0.47405192255973816,10.594342231750488
0.6320692300796509,0.4357447028160095,10.615890502929688
0.6057330369949341,0.31603461503982544,10.579977035522461
0.9169792532920837,-0.05027823522686958,10.54406452178955
0.8906430602073669,-0.20350714027881622,10.639832496643066
1.0295066833496094,-0.181959331035614,10.60152530670166
1.039083480834961,-0.29209262132644653,10.663774490356445
1.0103530883789062,-0.3687070608139038,10.649409294128418
1.0797849893569946,-0.3232172429561615,10.467450141906738
1.070208191871643,-0.31842881441116333,10.539276123046875
1.115697979927063,-0.3495534360408783,10.553641319274902
1.070208191871643,-0.5003881454467773,10.802638053894043
1.0127472877502441,-0.3663128614425659,11.101913452148438
0.9624691009521484,-0.2801215946674347,11.401188850402832
0.8882488012313843,-0.181959331035614,11.753135681152344
0.8523358106613159,0.033518824726343155,12.009315490722656
0.9457096457481384,0.35673606395721436,12.437877655029297
0.9313444495201111,0.7613561153411865,12.756306648254395
0.8930372595787048,1.213860273361206,13.113042831420898
0.790086567401886,1.455674648284912,13.273454666137695
0.667982280254364,1.4772224426269531,13.431471824645996
0.5195417404174805,1.647210717201233,13.4290771484375
0.4141969084739685,1.7741034030914307,13.345280647277832
0.4189853072166443,2.1571757793426514,13.285425186157227
0.5003881454467773,2.3319525718688965,13.218387603759766
0.6703764796257019,2.540247917175293,12.85207462310791
0.6512228846549988,2.609679937362671,12.600683212280273
0.730231523513794,2.58813214302063,12.397176742553711
0.7134721279144287,2.6815059185028076,11.927912712097168
0.6440402865409851,2.6455929279327393,11.561599731445312
0.646434485912323,2.513911724090576,11.197681427001953
0.5626373887062073,2.6360161304473877,10.922348022460938
0.8954314589500427,2.612074136734009,10.66137981414795
1.015141487121582,2.4660277366638184,10.383652687072754
1.1444283723831177,2.5929205417633057,10.08198356628418
1.1827356815338135,2.3487119674682617,9.708487510681152
1.3886369466781616,2.2625205516815186,9.363722801208496
1.5394717454910278,2.078166961669922,8.9064302444458
1.656787633895874,1.9393033981323242,8.712499618530273
1.6615760326385498,1.702277421951294,8.434772491455078
1.6400281190872192,1.4867992401123047,8.214506149291992
1.8315643072128296,1.2330138683319092,8.039729118347168
1.9991583824157715,1.1875240802764893,7.817068576812744
2.1068975925445557,0.9720458984375,7.702147006988525
2.248155355453491,0.8643068075180054,7.469909191131592
2.497152328491211,0.7469909191131592,7.177816867828369
2.6024973392486572,0.49320554733276367,6.988674640655518
2.736572504043579,0.40462008118629456,7.022193431854248
2.7293899059295654,0.023942016065120697,6.962338447570801
2.7126305103302,-0.33518823981285095,6.89530086517334
2.6024973392486572,-0.6512228846549988,6.840234279632568
2.513911724090576,-1.0797849893569946,6.89530086517334
2.3918075561523438,-1.2856862545013428,7.0341644287109375
2.425326347351074,-1.3623007535934448,7.000645637512207
2.456450939178467,-1.702277421951294,6.8043212890625
2.5282769203186035,-2.0374655723571777,6.648698329925537
2.7006595134735107,-2.0398597717285156,6.734889507293701
2.849100112915039,-1.8483237028121948,6.926425457000732
3.023876667022705,-1.577778935432434,6.878541469573975
3.1268274784088135,-1.6160861253738403,7.015010833740234
3.050212860107422,-1.8291701078414917,6.912060260772705
2.9544448852539062,-2.0422539710998535,7.072471618652344
2.9041666984558105,-2.2409727573394775,7.189787864685059
2.980781078338623,-2.499546527862549,7.448361396789551
2.983175277709961,-2.27209734916687,7.671022415161133
3.1052796840667725,-2.1930887699127197,7.709329605102539
3.2609026432037354,-1.9919757843017578,7.778761386871338
3.6822822093963623,-1.5418659448623657,7.592013359069824
3.8546648025512695,-1.2952631711959839,7.587224960327148
4.113238334655762,-0.9768342971801758,7.876923561096191
4.151545524597168,-0.9409212470054626,7.790732383728027
4.10366153717041,-1.0606313943862915,7.687781810760498
4.110844135284424,-1.1875240802764893,7.704541206359863
4.125209331512451,-1.5083470344543457,7.773972988128662
4.1611223220825195,-1.9536685943603516,7.817068576812744
4.225766181945801,-2.1499931812286377,7.5417351722717285
4.4077253341674805,-2.3487119674682617,7.3669586181640625
4.6040496826171875,-2.537853717803955,7.328651428222656
4.843470096588135,-2.6001031398773193,7.273584842681885
5.013458251953125,-2.6886885166168213,7.151480674743652
5.106832027435303,-2.940079689025879,7.01979923248291
5.279214859008789,-3.380612850189209,6.641515731811523
5.348646640777588,-3.840299606323242,6.53377628326416
5.327098846435547,-4.1180267333984375,6.337451934814453
5.585672378540039,-4.050989151000977,6.057330131530762
5.779603004455566,-3.931279182434082,5.664681434631348
5.899312973022461,-3.773261785507202,5.324704647064209
5.861005783081055,-4.151545524597168,5.128379821777344
5.784391403198242,-4.659116744995117,4.977545261383057
5.614402770996094,-5.418078422546387,5.288791656494141
5.537788391113281,-5.655104637145996,5.317522048950195
5.30076265335083,-5.8657941818237305,5.523423194885254
5.106832027435303,-6.09324312210083,5.722142219543457
5.011064052581787,-6.471527099609375,5.521028995513916
4.90571928024292,-6.557718276977539,5.523423194885254
4.9152960777282715,-6.282385349273682,5.403713226318359
5.054159641265869,-6.246472358703613,5.415684223175049
5.032611846923828,-6.426037311553955,5.6455278396606445
4.797980308532715,-6.4595561027526855,6.071695327758789
4.663905143737793,-6.406883716583252,6.426037311553955
4.584896087646484,-6.497863292694092,6.809109687805176
4.448426723480225,-6.619967937469482,7.1921820640563965
4.309563159942627,-6.643909931182861,7.280767440795898
4.331110954284668,-6.476315498352051,7.649474620819092
4.2329487800598145,-6.380547523498535,7.869740962982178
4.216189384460449,-6.390124320983887,7.90086555480957
4.273650169372559,-6.567295074462891,8.133103370666504
4.307168960571289,-6.780379295349121,8.35097599029541
4.443638324737549,-6.938396453857422,8.547300338745117
4.369418144226074,-7.010222434997559,8.736441612243652
4.309563159942627,-7.405265808105469,9.155426979064941
4.194641590118408,-7.654263019561768,9.263166427612305
4.1874589920043945,-7.86734676361084,9.512163162231445
4.082113742828369,-7.795520782470703,9.804255485534668
4.060565948486328,-8.04691219329834,9.99100399017334
4.0964789390563965,-8.238448143005371,10.180145263671875
3.971980571746826,-8.238448143005371,10.357316970825195
3.9839515686035156,-8.04691219329834,10.491392135620117
4.129997730255127,-7.999027729034424,10.527304649353027
4.07014274597168,-8.10437297821045,10.606313705444336
4.022258758544922,-8.269572257995605,10.563218116760254
3.9624037742614746,-8.24084186553955,10.469843864440918
3.995922565460205,-8.054094314575195,10.280701637268066
4.060565948486328,-7.771578788757324,10.230423927307129
4.268861770629883,-7.546523571014404,9.880870819091797
4.355052947998047,-7.316680431365967,9.694122314453125
4.302380561828613,-7.2568254470825195,9.488221168518066
4.201824188232422,-7.216124057769775,9.284713745117188
4.10366153717041,-7.0341644287109375,8.954314231872559
4.017470359802246,-6.806715488433838,8.635885238647461
4.055777549743652,-6.746860504150391,8.40843677520752
4.141968727111816,-6.538564682006836,8.185775756835938
4.046200752258301,-6.3949127197265625,7.939172744750977
4.055777549743652,-6.057330131530762,7.886500358581543
3.93367338180542,-5.901707172393799,7.884106159210205
4.079719543457031,-5.736507415771484,7.680599212646484
4.1180267333984375,-5.602431774139404,7.785943984985352
4.108449935913086,-5.66228723526001,7.647080421447754
4.1611223220825195,-5.643133640289307,7.481880187988281
4.10366153717041,-5.6455278396606445,7.527369976043701
4.185064792633057,-5.509057998657227,7.417236804962158
4.2760443687438965,-5.188235282897949,7.359776020050049
4.414907932281494,-5.085284233093262,7.3238630294799805
4.49870491027832,-5.006275653839111,7.220912456512451
4.580107688903809,-4.747702121734619,7.113173484802246
4.797980308532715,-4.661510944366455,7.089231014251709
5.070919036865234,-4.548983097076416,7.096413612365723
5.183446884155273,-4.4292731285095215,7.074865818023682
5.274426460266113,-4.627991676330566,7.089231014251709
5.276820659637451,-4.675876140594482,7.146692276000977
5.377377033233643,-4.69024133682251,7.146692276000977
5.525817394256592,-4.568136692047119,7.079654216766357
5.6191911697387695,-4.378994941711426,6.981492042541504
5.8873419761657715,-3.8283286094665527,6.782773494720459
5.825092792510986,-3.6942532062530518,6.665457725524902
5.875370979309082,-3.691859006881714,6.701370716094971
5.796362400054932,-3.794809579849243,6.7492547035217285
5.7341132164001465,-3.713406801223755,6.71334171295166
5.750872611999512,-3.579331636428833,6.67982292175293
5.880159378051758,-3.4189200401306152,6.619967937469482
5.985504150390625,-3.428496837615967,6.619967937469482
5.889736175537109,-3.4165258407592773,6.461950302124023
5.815515995025635,-3.4835634231567383,6.40927791595459
5.78678560256958,-3.265691041946411,6.5050458908081055
5.7125654220581055,-3.19865345954895,6.4834980964660645
5.679046630859375,-3.179499864578247,6.531382083892822
5.633556365966797,-3.1531636714935303,6.555324077606201
5.5329999923706055,-2.9328970909118652,6.502651691436768
5.609614372253418,-2.7509377002716064,6.493074893951416
5.6910176277160645,-2.540247917175293,6.4380083084106445
5.6670756340026855,-2.3367409706115723,6.387730121612549
5.612008571624756,-2.142810583114624,6.378153324127197
5.566518783569336,-2.2409727573394775,6.320692539215088
5.386953830718994,-2.185906171798706,6.296750545501709
5.128379821777344,-2.1308395862579346,6.514622688293457
5.0900726318359375,-1.845929503440857,6.646304130554199
5.099649429321289,-1.5442601442337036,6.564900875091553
5.2480902671813965,-1.3263877630233765,6.572083473205566
5.240907669067383,-1.259350061416626,6.50025749206543
5.202600479125977,-1.2689268589019775,6.737283706665039
5.147533416748047,-1.3263877630233765,6.751648902893066
5.006275653839111,-1.525106430053711,6.912060260772705
4.967968463897705,-1.6208745241165161,6.871358871459961
4.924872875213623,-1.6328455209732056,6.722918510437012
4.819528102874756,-1.6543933153152466,6.5912370681762695
4.802768707275391,-1.4891934394836426,6.466738700866699
4.668693542480469,-1.1851298809051514,6.636727333068848
4.532223701477051,-0.8523358106613159,6.979097843170166
4.436455726623535,-0.646434485912323,7.264008045196533
4.230554580688477,-0.6440402865409851,7.333439826965332
4.2329487800598145,-0.9097966551780701,7.489062786102295
4.098873138427734,-1.0031704902648926,7.620744228363037
4.23773717880249,-0.7637503147125244,7.623138427734375
4.170699596405029,-0.5506663918495178,7.486668586730957
4.1611223220825195,-0.2585737705230713,7.218518257141113
4.23773717880249,-0.11971008777618408,7.230489253997803
3.97916316986084,0.08619125932455063,7.814674377441406
3.6822822093963623,-0.0071826050989329815,8.056488990783691
3.332728862762451,-0.07182604819536209,8.152256965637207
3.1531636714935303,-0.038307227194309235,8.379706382751465
2.9903578758239746,0.2513911724090576,8.418013572692871
2.851494312286377,0.5530605912208557,8.087613105773926
2.940079689025879,0.7948749661445618,7.73087739944458
3.0142998695373535,0.9768342971801758,7.642292022705078
3.021482467651367,1.1899182796478271,7.592013359069824
2.9161376953125,1.2880805730819702,7.86734676361084
2.5761611461639404,1.2713210582733154,8.154650688171387
2.1092917919158936,1.1324573755264282,8.346187591552734
1.824381709098816,0.9409212470054626,8.324639320373535
1.5514427423477173,0.8858546018600464,8.355764389038086
1.3623007535934448,1.1204863786697388,8.415618896484375
1.436521053314209,1.5610195398330688,8.339004516601562
1.3527239561080933,1.745373010635376,8.293514251708984
1.3096283674240112,1.946485996246338,8.329427719116211
1.237802267074585,2.1092917919158936,8.53293514251709
1.0007762908935547,2.097320795059204,8.813055992126465
0.5506663918495178,1.9536685943603516,9.14345645904541
-0.004788403399288654,1.6065093278884888,9.852140426635742
-0.2561795711517334,1.9321208000183105,10.244789123535156
-0.2849099934101105,2.1811177730560303,10.429142951965332
-0.2992752194404602,2.2649147510528564,10.584765434265137
-0.38546648621559143,2.2912509441375732,10.505757331848145
-0.524330198764801,2.473210334777832,10.625467300415039
-0.5578489899635315,2.6240451335906982,10.771512985229492
-0.8786720037460327,2.6431987285614014,11.085153579711914
-1.0558429956436157,2.7892448902130127,11.35809326171875
-1.1851298809051514,2.7246015071868896,11.51850414276123
-1.2090718746185303,2.5689783096313477,11.638214111328125
-1.235408067703247,2.3918075561523438,11.714828491210938
-1.1300631761550903,2.255337953567505,11.549629211425781
-0.9576807022094727,2.209848165512085,11.537657737731934
-0.8906430602073669,2.1595699787139893,11.504138946533203
-0.8690952062606812,2.054224967956543,11.504138946533203
-0.9552865028381348,1.8962076902389526,11.583148002624512
-1.01753568649292,1.9919757843017578,11.640608787536621
-1.0534487962722778,1.965639591217041,11.73398208618164
-0.9457096457481384,1.821987509727478,11.767500877380371
-0.9002198576927185,1.7142484188079834,11.654973983764648
-0.5386953949928284,1.644816517829895,11.628637313842773
-0.48602294921875,1.580173134803772,11.568782806396484
-0.5195417404174805,1.6496049165725708,11.595118522644043
-0.4405331015586853,1.6831238269805908,11.487380027770996
-0.4213795065879822,1.6927006244659424,11.343728065490723
-0.4141969084739685,1.6855180263519287,11.161767959594727
-0.31364041566848755,1.6280571222305298,11.05642318725586
-0.16759411990642548,1.5394717454910278,10.951078414916992
-0.07182604819536209,1.5179238319396973,10.876858711242676
0.023942016065120697,1.4413094520568848,10.790667533874512
0.08379705995321274,1.3958195447921753,10.714052200317383
0.181959331035614,1.2282254695892334,10.484209060668945
0.17238251864910126,1.2737152576446533,10.45547866821289
0.17238251864910126,1.359906554222107,10.378864288330078
0.06703764945268631,1.403002142906189,10.163386344909668
0.16998831927776337,1.3287819623947144,10.02452278137207
0.17956513166427612,1.3263877630233765,9.90241813659668
0.26336219906806946,1.2186486721038818,9.84495735168457
0.3423708379268646,1.2258312702178955,9.770736694335938
0.4381389021873474,1.2090718746185303,9.806650161743164
0.47644615173339844,1.1492167711257935,9.818621635437012
0.2849099934101105,0.933738648891449,9.86650562286377
0.040701430290937424,0.6129156351089478,9.86889934539795
0.1149216815829277,0.507570743560791,9.830592155456543
0.16759411990642548,0.3926490843296051,9.947908401489258
0.011971008032560349,0.36152446269989014,10.029311180114746
-0.15083470940589905,0.36152446269989014,10.15141487121582
-0.31124621629714966,0.48602294921875,10.256759643554688
-0.47405192255973816,0.5770025849342346,10.345345497131348
-0.33279404044151306,0.5841852426528931,10.266336441040039
-0.2801215946674347,0.7493851184844971,10.259154319763184
-0.10773907601833344,0.3687070608139038,10.417171478271484
-0.10055647045373917,0.06703764945268631,10.496180534362793
-0.18914192914962769,0.026336219161748886,10.563218116760254
-0.24181437492370605,0.37828385829925537,10.376470565795898
-0.05506663769483566,0.751779317855835,10.254365921020508
0.08858546614646912,0.667982280254364,9.780313491821289
0.031124621629714966,0.47884035110473633,9.160215377807617
-0.07900865375995636,0.24660277366638184,8.678980827331543
-0.304063618183136,0.016759412363171577,8.451532363891602
-0.6105214357376099,-0.16519992053508759,8.904036521911621
-0.8906430602073669,-0.1843535304069519,9.5408935546875
-0.9289502501487732,0.0454898327589035,10.44350814819336
-0.35673606395721436,-0.11013327538967133,12.023680686950684
0.033518824726343155,-0.15083470940589905,12.354081153869629
0.5386953949928284,0.09576806426048279,12.497733116149902
0.9959878921508789,0.18914192914962769,12.648567199707031
1.292868971824646,-0.21787235140800476,12.806585311889648
1.2665326595306396,-0.7134721279144287,12.840104103088379
1.1444283723831177,-0.8786720037460327,12.830527305603027
1.1085153818130493,-0.751779317855835,12.442666053771973
1.2282254695892334,-0.11971008777618408,11.863269805908203
1.4221558570861816,0.7805097699165344,11.403582572937012
1.721431016921997,1.335964560508728,11.166556358337402
1.845929503440857,1.3694833517074585,11.15697956085205
1.8195933103561401,0.5841852426528931,10.977415084838867
1.8363527059555054,-0.06224924325942993,10.709263801574707
1.8291701078414917,-0.4812345504760742,10.558429718017578
1.800439715385437,-0.5363011956214905,9.909601211547852
1.9728221893310547,-0.4884171485900879,9.349357604980469
2.1045033931732178,-0.12449848651885986,8.860940933227539
2.233790159225464,0.038307227194309235,8.485051155090332
2.492363929748535,0.15322890877723694,8.355764389038086
2.5546131134033203,-0.27054479718208313,8.439560890197754
2.762908697128296,-0.646434485912323,8.315062522888184
2.734178304672241,-0.8882488012313843,7.785943984985352
2.6599581241607666,-0.8092401623725891,7.5632829666137695
2.4372973442077637,-0.6991068720817566,7.182605266571045
2.387019157409668,-0.49559974670410156,6.933608055114746
2.3127987384796143,-0.14365209639072418,6.555324077606201
2.3247697353363037,0.16519992053508759,6.054935932159424
2.3271639347076416,0.05506663769483566,5.748478412628174
2.3056161403656006,-0.5889736413955688,5.884947776794434
2.1978771686553955,-1.623268723487854,6.265625953674316
2.0925323963165283,-2.3942017555236816,6.5912370681762695
1.867477297782898,-2.6575639247894287,6.696582317352295
1.680729627609253,-2.2361843585968018,6.763619899749756
1.6879122257232666,-1.53707754611969,6.581660270690918
1.6328455209732056,-1.1971008777618408,6.507440090179443
1.6304513216018677,-1.4676456451416016,6.222530364990234
1.6376339197158813,-1.702277421951294,6.071695327758789
1.5921441316604614,-2.032677173614502,6.150704383850098
1.41257905960083,-2.1164743900299072,6.447585105895996
1.0989385843276978,-2.145204782485962,6.818686485290527
0.9433154463768005,-2.1763293743133545,7.359776020050049
0.7206547260284424,-2.319981336593628,7.805097579956055
0.40940847992897034,-2.4827871322631836,8.327033042907715
0.3711012601852417,-2.4420857429504395,8.324639320373535
0.45489832758903503,-2.5330653190612793,8.422801971435547
0.2825157940387726,-2.497152328491211,8.489839553833008
0.0933738648891449,-2.513911724090576,8.69334602355957
0.13168109953403473,-2.5330653190612793,8.904036521911621
0.14604631066322327,-2.5929205417633057,9.327810287475586
0.12210428714752197,-2.434903144836426,9.564835548400879
0.20111294090747833,-2.2888567447662354,9.916783332824707
0.14604631066322327,-2.7078421115875244,10.290278434753418
0.014365210197865963,-3.2824504375457764,10.800244331359863
-0.07422025501728058,-3.622427225112915,11.094730377197266
-0.22266076505184174,-3.687070608139038,11.367670059204102
-0.4381389021873474,-3.2968156337738037,11.396400451660156
-0.4812345504760742,-3.3063924312591553,11.298237800598145
-0.49320554733276367,-3.2393548488616943,11.164162635803223
-0.3902548849582672,-3.3638534545898438,11.291055679321289
-0.2298433631658554,-3.423708438873291,11.39400577545166
-0.24181437492370605,-3.246537446975708,11.379640579223633
-0.09576806426048279,-3.222595453262329,11.322179794311523
-0.14365209639072418,-3.2537200450897217,11.312602996826172
-0.1149216815829277,-2.7557260990142822,11.681309700012207
-0.016759412363171577,-2.403778553009033,11.611878395080566
0.05985504388809204,-2.169146776199341,11.51611042022705
0.16998831927776337,-1.9584569931030273,11.348516464233398
0.2801215946674347,-1.8387469053268433,11.018115997314453
0.5578489899635315,-1.7070658206939697,10.919954299926758
0.7565677165985107,-1.5538369417190552,11.037269592285156
1.0821791887283325,-1.4724340438842773,11.202469825744629
1.2832920551300049,-1.6687586307525635,11.530475616455078
1.3862427473068237,-1.9321208000183105,11.73398208618164
1.4293384552001953,-1.8626888990402222,11.719616889953613
1.5873557329177856,-1.7741034030914307,11.84650993347168
1.5538369417190552,-1.6950948238372803,11.791443824768066
1.5275006294250488,-1.6831238269805908,11.801020622253418
1.5873557329177856,-1.6065093278884888,11.820174217224121
1.723825216293335,-1.2976573705673218,12.011710166931152
1.9057846069335938,-0.8427590131759644,12.229581832885742
2.123656988143921,-0.7805097699165344,12.411541938781738
2.164358377456665,-0.7541735172271729,12.569559097290039
2.1954829692840576,-0.8307880163192749,12.691662788391113
2.142810583114624,-0.790086567401886,12.773066520690918
1.968033790588379,-0.912190854549408,12.4785795211792
2.2170307636260986,-0.363918662071228,12.018892288208008
2.3080103397369385,-0.1149216815829277,11.834539413452148
2.3487119674682617,-0.028730420395731926,11.841721534729004
2.3104045391082764,-0.0454898327589035,11.808202743530273
2.169146776199341,-0.35434186458587646,11.836933135986328
2.03507137298584,-0.5793967843055725,11.535264015197754
2.166752576828003,-0.47165772318840027,11.243170738220215
2.274491548538208,-0.22505496442317963,10.886435508728027
2.535459518432617,0.035913024097681046,10.663774490356445
2.6623523235321045,0.028730420395731926,10.56800651550293
2.631227731704712,-0.07422025501728058,10.441113471984863
2.6384103298187256,-0.19393034279346466,10.302249908447266
2.628833532333374,-0.1149216815829277,10.11789608001709
2.8131868839263916,-0.047884032130241394,9.847352027893066
2.9520506858825684,0.08379705995321274,9.813833236694336
3.0861260890960693,0.21547815203666687,9.785101890563965
3.184288263320923,0.20350714027881622,9.627084732055664
3.1914708614349365,-0.004788403399288654,9.332598686218262
3.1723172664642334,-0.0071826050989329815,8.916007041931152
3.2585084438323975,0.033518824726343155,8.461109161376953
3.292027235031128,0.29209262132644653,8.142680168151855
3.3207578659057617,0.5195417404174805,7.884106159210205
3.426102638244629,0.2801215946674347,8.030152320861816
3.318363666534424,-0.004788403399288654,7.987056732177734
3.4596214294433594,-0.19393034279346466,7.7643961906433105
3.466804027557373,-0.15801730751991272,7.527369976043701
3.469198226928711,-0.31603461503982544,7.453149795532227
3.337517261505127,-0.629675030708313,7.347805023193359
3.162740468978882,-0.8571242094039917,7.184999465942383
3.1004912853240967,-0.8068459630012512,6.854599475860596
3.1268274784088135,-0.3471592366695404,6.691793918609619
3.2154128551483154,-0.06703764945268631,6.447585105895996
3.0765492916107178,-0.016759412363171577,6.315904140472412
2.7988216876983643,-0.24899697303771973,6.086060523986816
2.6791117191314697,-0.3471592366695404,5.710171222686768
2.583343744277954,-0.24899697303771973,5.566518783569336
2.513911724090576,-0.49799394607543945,5.808333396911621
2.5019407272338867,-1.0103530883789062,6.315904140472412
2.434903144836426,-1.656787633895874,6.782773494720459
2.343923568725586,-1.9584569931030273,6.97430944442749
2.205059766769409,-1.8626888990402222,6.876147270202637
1.968033790588379,-1.4077905416488647,6.737283706665039
1.8291701078414917,-1.1755530834197998,6.337451934814453
1.647210717201233,-1.338358759880066,5.808333396911621
1.3766659498214722,-1.4508862495422363,5.736507415771484
1.3048399686813354,-1.501164436340332,6.596025466918945
1.4484920501708984,-1.4748282432556152,6.038176536560059
1.1324573755264282,-1.946485996246338,7.254431247711182
0.9457096457481384,-2.6455929279327393,7.836222171783447
0.7469909191131592,-2.8826189041137695,8.063671112060547
0.6703764796257019,-2.674323320388794,8.022970199584961
0.8236053586006165,-2.207453966140747,7.8098859786987305
1.1540051698684692,-1.6089035272598267,7.644686222076416
1.434126853942871,-1.2401964664459229,7.790732383728027
1.4676456451416016,-1.3096283674240112,8.037335395812988
1.3072341680526733,-1.5705963373184204,8.286332130432129
1.015141487121582,-1.8962076902389526,8.528146743774414
0.9433154463768005,-2.255337953567505,8.813055992126465
0.7493851184844971,-2.2864625453948975,9.20091724395752
0.6440402865409851,-2.2409727573394775,9.612719535827637
0.5482721924781799,-2.1811177730560303,10.02691650390625
0.38067805767059326,-2.535459518432617,10.113107681274414
0.2059013396501541,-2.717418909072876,10.194510459899902
0.1149216815829277,-2.5905263423919678,10.108319282531738
0.08858546614646912,-2.4875755310058594,9.979032516479492
0.10773907601833344,-2.470816135406494,10.129867553710938
0.1149216815829277,-2.425326347351074,10.484209060668945
-0.019153613597154617,-2.5785553455352783,10.776301383972168
-0.3280056416988373,-2.8107926845550537,11.039664268493652
-0.5386953949928284,-2.9735984802246094,11.190498352050781
-0.7781155705451965,-3.0573954582214355,11.068394660949707
-1.0462661981582642,-3.1459810733795166,10.888829231262207
-1.091755986213684,-2.999934673309326,10.630255699157715
-0.9409212470054626,-2.7293899059295654,10.843339920043945
-0.6033388376235962,-2.7030537128448486,11.216835021972656
-0.31842881441116333,-2.669534921646118,11.63342571258545
-0.08619125932455063,-2.87064790725708,12.09550666809082
-0.0454898327589035,-2.9975404739379883,12.287043571472168
-0.038307227194309235,-2.894589900970459,12.24394702911377
-0.11971008777618408,-2.7006595134735107,12.071564674377441
-0.26815059781074524,-2.557007312774658,11.834539413452148
-0.23942017555236816,-2.3942017555236816,11.81059741973877
-0.035913024097681046,-1.944091796875,11.951854705810547
0.3878606855869293,-1.946485996246338,12.069170951843262
0.5674257874488831,-2.185906171798706,12.073959350585938
0.3495534360408783,-2.319981336593628,12.047622680664062
0.5650315880775452,-2.4205379486083984,12.09550666809082
1.0127472877502441,-2.293645143508911,12.200851440429688
1.4987702369689941,-2.250549554824829,12.401965141296387
1.680729627609253,-2.425326347351074,12.650961875915527
1.4844050407409668,-2.410961151123047,12.840104103088379
1.4389152526855469,-2.4420857429504395,13.057975769042969
1.5203180313110352,-2.647987127304077,12.978967666625977
1.6208745241165161,-2.6862943172454834,12.653355598449707
1.8291701078414917,-2.5522189140319824,12.27267837524414
2.1739351749420166,-2.190694570541382,12.160150527954102
2.3918075561523438,-2.030282974243164,12.148179054260254
2.6431987285614014,-1.8818424940109253,12.39957046508789
2.6839001178741455,-2.0039467811584473,12.557587623596191
2.5330653190612793,-2.27209734916687,12.643778800964355
2.2457611560821533,-2.5091233253479004,12.495338439941406
2.2170307636260986,-2.6408045291900635,12.236764907836914
2.2864625453948975,-2.229001760482788,11.69806957244873
2.451662540435791,-1.656787633895874,11.370063781738281
2.557007312774658,-1.1971008777618408,11.03248119354248
2.6791117191314697,-1.0103530883789062,10.737994194030762
2.6192567348480225,-1.0007762908935547,10.620678901672363
2.5713725090026855,-1.0223240852355957,10.398017883300781
2.652775526046753,-1.091755986213684,10.369287490844727
2.6575639247894287,-1.0127472877502441,10.127472877502441
2.7724854946136475,-0.8236053586006165,9.928754806518555
2.875436305999756,-0.5937620401382446,9.780313491821289
2.980781078338623,-0.4812345504760742,9.660603523254395
3.0382418632507324,-0.31364041566848755,9.47146224975586
3.1723172664642334,-0.2537853717803955,9.23682975769043
3.2537200450897217,-0.16998831927776337,9.17936897277832
3.450044631958008,-0.028730420395731926,9.102754592895508
3.361459255218506,-0.1173158809542656,8.954314231872559
3.423708438873291,-0.05506663769483566,9.090784072875977
3.227383852005005,-0.05985504388809204,9.057265281677246
3.136404275894165,-0.10295066982507706,9.059659004211426
3.0358476638793945,-0.05985504388809204,8.990227699279785
3.248931646347046,0.20350714027881622,8.932766914367676
3.469198226928711,0.4620809257030487,8.7268648147583
3.7612907886505127,0.6703764796257019,8.339004516601562
3.8091750144958496,0.8595184087753296,8.015787124633789
3.9169139862060547,0.8355764150619507,7.759607791900635
3.8498764038085938,0.7134721279144287,7.620744228363037
3.9169139862060547,0.2585737705230713,7.38132381439209
4.034229755401611,0.047884032130241394,7.429207801818848
4.017470359802246,-0.11013327538967133,7.510610580444336
3.9049429893493652,-0.35913026332855225,7.661445617675781
3.8977603912353516,-0.5171475410461426,7.625532627105713
3.9169139862060547,-0.5482721924781799,7.647080421447754
3.754108190536499,-0.5267243981361389,7.417236804962158
3.643975019454956,-0.45010992884635925,7.105990409851074
3.751713991165161,-0.43335050344467163,6.952761650085449
3.818751811981201,-0.4381389021873474,6.7061591148376465
3.8594532012939453,-0.5123591423034668,6.653486728668213
3.7636849880218506,-0.6105214357376099,6.694188117980957
3.584120035171509,-0.6200982332229614,6.660669326782227
3.313575267791748,-0.706289529800415,6.552929878234863
3.155557870864868,-0.8212111592292786,6.4595561027526855
3.1747114658355713,-0.9528923034667969,6.275202751159668
3.117250680923462,-1.0055646896362305,6.038176536560059
3.090914487838745,-1.039083480834961,6.004657745361328
3.028665065765381,-0.933738648891449,6.098031520843506
2.9089550971984863,-1.0247182846069336,6.138733386993408
2.7222073078155518,-1.1348515748977661,6.315904140472412
2.1164743900299072,-1.316810965538025,5.87776517868042
1.944091796875,-1.2689268589019775,5.585672378540039
1.7334020137786865,-1.460463047027588,5.449203014373779
1.556231141090393,-1.6328455209732056,5.51624059677124
1.50355863571167,-1.9393033981323242,5.738901615142822
1.3503297567367554,-2.2433669567108154,6.275202751159668
1.37906014919281,-2.3726539611816406,6.615179061889648
1.338358759880066,-2.63362193107605,6.797138690948486
1.3311761617660522,-2.7724854946136475,6.801927089691162
1.3072341680526733,-2.96162748336792,6.538564682006836
1.3048399686813354,-2.762908697128296,6.121973514556885
1.4676456451416016,-2.3367409706115723,5.954379558563232
1.6065093278884888,-2.190694570541382,5.975927352905273
1.4939818382263184,-2.4588451385498047,6.167463779449463
1.4101848602294922,-3.318363666534424,6.782773494720459
1.01753568649292,-4.23773717880249,7.975085735321045
0.4141969084739685,-4.774038314819336,9.131484985351562
0.10295066982507706,-4.817133903503418,9.849745750427246
-0.031124621629714966,-4.402936935424805,10.139444351196289
0.23702596127986908,-3.758896589279175,10.079588890075684
0.6129156351089478,-3.3303346633911133,9.849745750427246
0.9074024558067322,-3.251325845718384,9.768342971801758
0.6967126727104187,-3.004723072052002,10.125079154968262
0.6200982332229614,-3.507505416870117,10.795455932617188
0.44532153010368347,-4.273650169372559,11.51850414276123
0.2944868206977844,-4.489128112792969,12.320562362670898
0.304063618183136,-4.034229755401611,12.950237274169922
0.3663128614425659,-3.550601005554199,13.263877868652344
0.44532153010368347,-2.978386878967285,13.431471824645996
0.6057330369949341,-2.387019157409668,13.321338653564453
0.5961562395095825,-1.9033904075622559,12.911930084228516
0.7829039692878723,-1.656787633895874,12.459425926208496
0.9313444495201111,-1.5753847360610962,12.081141471862793
1.0462661981582642,-1.534683346748352,11.93509578704834
1.1013327836990356,-1.6927006244659424,11.999738693237305
1.213860273361206,-1.5658079385757446,12.253523826599121
1.2880805730819702,-1.0654197931289673,12.346898078918457
1.3048399686813354,-0.8403648138046265,12.27267837524414
1.3479355573654175,-0.8188169598579407,11.963826179504395
1.1994950771331787,-0.6033388376235962,11.81059741973877
1.1013327836990356,-0.31124621629714966,11.587936401367188
1.01753568649292,-0.090979665517807,11.312602996826172
0.8212111592292786,0.22026655077934265,10.852916717529297
0.8954314589500427,0.6105214357376099,10.893617630004883
0.9552865028381348,0.8020575642585754,11.085153579711914
1.048660397529602,0.7254431247711182,11.228805541992188
0.8954314589500427,0.5051765441894531,11.331756591796875
0.7972691655158997,0.45489832758903503,11.274295806884766
0.5793967843055725,0.38307225704193115,11.006145477294922
0.4165911078453064,0.304063618183136,10.716446876525879
0.29209262132644653,0.33279404044151306,10.426748275756836
0.40462008118629456,0.545877993106842,10.256759643554688
0.3495534360408783,0.5386953949928284,10.093954086303711
0.38067805767059326,0.5099649429321289,10.086771965026855
0.38546648621559143,0.5099649429321289,10.070012092590332
0.3256114423274994,0.4189853072166443,9.931148529052734
0.42616790533065796,0.28969839215278625,9.823410034179688
0.49559974670410156,0.2944868206977844,9.730035781860352
0.4812345504760742,0.3926490843296051,9.718064308166504
0.47884035110473633,0.43095630407333374,9.710882186889648
0.43335050344467163,0.3447650372982025,9.667786598205566
0.4189853072166443,0.30885201692581177,9.701305389404297
0.5195417404174805,0.1867477297782898,9.581595420837402
0.5530605912208557,0.05506663769483566,9.59835433959961
0.6177040338516235,0.19153612852096558,9.552865028381348
0.6584054827690125,0.6488286852836609,9.464279174804688
0.6392518281936646,0.8451532125473022,9.459490776062012
0.6129156351089478,0.9050082564353943,9.567230224609375
0.507570743560791,0.8355764150619507,9.806650161743164
0.45250412821769714,0.7757213711738586,10.034099578857422
0.38546648621559143,0.8212111592292786,10.158597946166992
0.43095630407333374,0.8427590131759644,10.35252857208252
0.4118026793003082,0.8523358106613159,10.551246643066406
0.4357447028160095,0.8212111592292786,10.773907661437988
0.49799394607543945,0.8738836050033569,11.022904396057129
0.5171475410461426,0.7972691655158997,11.30302619934082
0.40940847992897034,0.7948749661445618,11.566388130187988
0.2944868206977844,0.7852981686592102,11.949460983276367
0.15801730751991272,0.8331822156906128,12.282255172729492
0.009576806798577309,0.9457096457481384,12.631808280944824
-0.047884032130241394,1.1013327836990356,12.945448875427246
-0.1843535304069519,1.2617442607879639,13.254301071166992
-0.3447650372982025,1.2880805730819702,13.33809757232666
-0.5386953949928284,1.3623007535934448,13.529633522033691
-0.6584054827690125,1.4652514457702637,13.704410552978516
-0.7757213711738586,1.7621324062347412,13.872004508972168
-0.8331822156906128,2.1045033931732178,13.864822387695312
-0.7924807667732239,2.2649147510528564,13.862427711486816
-0.8092401623725891,2.382230758666992,13.70201587677002
-0.8355764150619507,2.559401512145996,13.441048622131348
-0.6823474764823914,2.964021682739258,13.235146522521973
-0.5985504388809204,3.114856481552124,12.945448875427246
-0.5985504388809204,3.2417490482330322,12.610260009765625
-0.7422025203704834,3.5051112174987793,12.504915237426758
-0.8858546018600464,3.5410242080688477,12.322956085205078
-0.8571242094039917,3.892971992492676,12.009315490722656
-0.7086837291717529,4.199429988861084,11.738770484924316
-0.5650315880775452,4.537012100219727,11.362881660461426
-0.38067805767059326,4.793191909790039,10.951078414916992
-0.17717093229293823,5.118803024291992,10.623072624206543
0.08379705995321274,5.200206279754639,10.278307914733887
0.07182604819536209,5.348646640777588,9.976638793945312
0.1843535304069519,5.260061264038086,9.643844604492188
0.21547815203666687,5.252878665924072,9.366117477416992
0.2777273952960968,5.099649429321289,9.050082206726074
0.304063618183136,5.049371242523193,8.827422142028809
0.395043283700943,4.989516258239746,8.406042098999023
0.7876923680305481,5.008669853210449,8.044517517089844
0.9864110946655273,5.125985622406006,7.73087739944458
1.0630255937576294,5.118803024291992,7.565677165985107
1.139639973640442,4.944026470184326,7.4555439949035645
1.237802267074585,4.788403511047363,7.091625213623047
1.3024457693099976,4.704606533050537,6.959944248199463
1.4197616577148438,4.790797710418701,6.763619899749756
1.5873557329177856,4.9583916664123535,6.588842868804932
1.6041151285171509,5.128379821777344,6.402095317840576
1.745373010635376,5.188235282897949,6.36378812789917
1.8794482946395874,5.104437828063965,6.203376770019531
2.054224967956543,4.99669885635376,6.246472358703613
2.073378562927246,4.99669885635376,6.121973514556885
2.229001760482788,4.95120906829834,6.038176536560059
2.425326347351074,4.838681697845459,5.944802761077881
2.5953147411346436,4.7405195236206055,5.813121795654297
2.7892448902130127,4.611232280731201,5.652710437774658
2.9879636764526367,4.742913722991943,5.552153587341309
3.0837318897247314,4.786009311676025,5.360617637634277
3.248931646347046,4.76924991607666,5.166687488555908
3.3686418533325195,4.548983097076416,5.118803024291992
3.4356794357299805,4.321534156799316,4.95120906829834
3.6607344150543213,3.8522706031799316,4.666299343109131
3.620033025741577,3.6822822093963623,4.587290287017822
3.691859006881714,3.4596214294433594,4.479551315307617
3.754108190536499,3.287238836288452,4.398148536682129
3.9408559799194336,3.045424461364746,4.2329487800598145
4.1156325340271,3.021482467651367,3.9911341667175293
4.359841346740723,3.002328872680664,3.801992416381836
4.400542736053467,3.0334534645080566,3.5960910320281982
4.532223701477051,2.8826189041137695,3.5386300086975098
4.458003520965576,2.868253707885742,3.485957622528076
4.446032524108887,2.849100112915039,3.354276657104492
4.575319290161133,2.82515811920166,3.3925838470458984
4.9799394607543945,2.734178304672241,3.421314239501953
5.382165431976318,2.894589900970459,3.335123062133789
5.542576789855957,2.9735984802246094,3.24414324760437
5.52821159362793,3.047818660736084,3.1483752727508545
5.386953830718994,3.0095114707946777,3.2082302570343018
5.382165431976318,3.0765492916107178,3.3494882583618164
5.4228668212890625,2.9879636764526367,3.3518824577331543
5.406107425689697,2.9927520751953125,3.4404678344726562
5.420472621917725,3.0142998695373535,3.4763808250427246
5.351040840148926,2.8227639198303223,3.4189200401306152
5.252878665924072,2.7724854946136475,3.2585084438323975
5.272032260894775,2.8227639198303223,3.2776620388031006
5.509057998657227,2.80361008644104,3.469198226928711
5.992686748504639,2.5905263423919678,3.421314239501953
6.2416839599609375,2.2625205516815186,3.4620156288146973
6.18182897567749,1.987187385559082,3.49314022064209
5.894524574279785,1.5873557329177856,3.584120035171509
5.56173038482666,1.235408067703247,3.7229835987091064
5.336675643920898,0.9696516990661621,3.8139634132385254
5.353435039520264,0.9217676520347595,3.9839515686035156
5.377377033233643,0.7829039692878723,4.034229755401611
5.408501625061035,0.7613561153411865,4.120420932769775
5.509057998657227,0.5937620401382446,4.199429988861084
5.559336185455322,0.26575639843940735,4.20421838760376
5.2672438621521,-0.05267243832349777,4.2951979637146
4.900930881500244,-0.5650315880775452,4.288015365600586
4.570530891418457,-1.039083480834961,4.627991676330566
4.503493309020996,-1.3646949529647827,5.377377033233643
4.759673118591309,-1.6304513216018677,5.813121795654297
4.970362663269043,-1.8579005002975464,5.995080947875977
5.214571475982666,-2.0614075660705566,6.370970726013184
5.106832027435303,-2.0422539710998535,6.6391215324401855
4.955997467041016,-2.1045033931732178,7.053318023681641
4.891354084014893,-2.322375535964966,7.347805023193359
4.946420669555664,-2.5330653190612793,7.690176010131836
5.1810526847839355,-3.0119056701660156,7.90086555480957
5.295974254608154,-3.533841609954834,8.293514251708984
5.219359874725342,-3.9863457679748535,8.516175270080566
5.0254292488098145,-3.9432501792907715,9.196128845214844
5.137956619262695,-3.8115692138671875,9.612719535827637
5.432443618774414,-3.7445313930511475,10.244789123535156
5.736507415771484,-3.7205893993377686,10.675745010375977
5.746084213256836,-3.732560396194458,10.790667533874512
5.65031623840332,-3.9408559799194336,10.644620895385742
5.339069843292236,-4.027047157287598,10.565611839294434
4.991910457611084,-3.892971992492676,10.747570991516113
4.920084476470947,-3.7445313930511475,10.836156845092773
4.98472785949707,-3.5482068061828613,11.109095573425293
5.250484466552734,-3.339911460876465,11.283872604370117
5.5329999923706055,-3.1220390796661377,11.5065336227417
5.530605792999268,-2.940079689025879,11.678915977478027
5.458779811859131,-2.6431987285614014,11.690886497497559
5.329493045806885,-2.454056739807129,11.88002872467041
5.190629482269287,-2.2146365642547607,12.016498565673828
5.07570743560791,-2.2409727573394775,11.908759117126465
5.106832027435303,-2.1739351749420166,11.836933135986328
5.257667064666748,-2.1523873805999756,11.743558883666992
5.305551052093506,-1.9991583824157715,11.896788597106934
5.343858242034912,-1.6711528301239014,11.939884185791016
5.4659624099731445,-1.3886369466781616,12.121843338012695
5.578489780426025,-1.1348515748977661,12.172121047973633
5.700594425201416,-0.9265560507774353,12.15057373046875
5.7987565994262695,-0.608127236366272,12.009315490722656
5.710171222686768,-0.42856210470199585,11.769895553588867
5.530605792999268,-0.4596867263317108,11.530475616455078
5.1116204261779785,-0.4836287498474121,11.279084205627441
4.920084476470947,-0.5363011956214905,11.44907283782959
4.742913722991943,-0.545877993106842,11.5065336227417
4.618414878845215,-0.7374141216278076,11.626243591308594
4.268861770629883,-0.9289502501487732,11.767500877380371
4.02465295791626,-1.0007762908935547,11.78665542602539
3.73016619682312,-1.2186486721038818,11.848904609680176
3.4380736351013184,-1.3335703611373901,11.769895553588867
3.0334534645080566,-1.2713210582733154,11.30302619934082
2.9448680877685547,-1.2449848651885986,11.329362869262695
2.8347349166870117,-1.3718775510787964,11.310209274291992
2.741360902786255,-1.403002142906189,11.3269681930542
2.8419175148010254,-1.2449848651885986,11.401188850402832
2.9496564865112305,-1.158793568611145,11.434707641601562
3.093308687210083,-1.216254472732544,11.444284439086914
3.313575267791748,-1.137245774269104,11.595118522644043
3.5960910320281982,-1.1851298809051514,11.717223167419434
3.8355112075805664,-1.0797849893569946,12.006921768188477
4.194641590118408,-0.9241618514060974,12.373234748840332
4.489128112792969,-1.0079588890075684,12.413935661315918
4.802768707275391,-1.2186486721038818,12.538434028625488
4.920084476470947,-1.3718775510787964,12.524068832397461
4.934449672698975,-1.5466543436050415,12.571952819824219
4.963180065155029,-1.6112977266311646,12.574347496032715
5.123591423034668,-1.7286136150360107,12.526463508605957
5.288791656494141,-1.7884687185287476,12.497733116149902
5.252878665924072,-1.9033904075622559,12.327744483947754
5.202600479125977,-2.166752576828003,12.224793434143066
5.149928092956543,-2.31758713722229,11.865663528442383
5.008669853210449,-2.451662540435791,11.152191162109375
4.90571928024292,-2.564189910888672,10.690110206604004
4.920084476470947,-2.6839001178741455,10.381258964538574
4.95120906829834,-2.583343744277954,9.873687744140625
5.006275653839111,-2.6647465229034424,9.397241592407227
5.049371242523193,-2.607285737991333,8.851364135742188
4.955997467041016,-2.580949544906616,8.401253700256348
4.8722004890441895,-2.7222073078155518,8.037335395812988
4.910507678985596,-2.7533318996429443,7.524975776672363
4.838681697845459,-2.650381326675415,7.283161640167236
4.8937482833862305,-2.542642116546631,6.856993675231934
4.963180065155029,-2.497152328491211,6.643909931182861
4.963180065155029,-2.4588451385498047,6.4164605140686035
4.884171485900879,-2.3942017555236816,6.098031520843506
5.013458251953125,-2.2601263523101807,5.8657941818237305
4.975151062011719,-2.1787235736846924,5.552153587341309
4.903325080871582,-2.078166961669922,5.202600479125977
4.752490520477295,-1.9297266006469727,5.070919036865234
4.857835292816162,-1.656787633895874,4.9368438720703125
4.78122091293335,-1.4077905416488647,4.795586109161377
4.8267107009887695,-1.2497732639312744,4.702212333679199
4.886565685272217,-1.0342950820922852,4.721365928649902
4.8051629066467285,-0.6057330369949341,4.551377296447754
4.620809078216553,-0.33758243918418884,4.520252704620361
4.608838081359863,-0.047884032130241394,4.577713489532471
4.620809078216553,0.1867477297782898,4.4723687171936035
4.5394062995910645,0.4165911078453064,4.369418144226074
4.548983097076416,0.7541735172271729,4.316745758056641
4.398148536682129,0.9624691009521484,4.307168960571289
4.390965938568115,1.113303780555725,4.170699596405029
4.446032524108887,1.2641384601593018,4.266467571258545
4.4292731285095215,1.4676456451416016,4.350264549255371
4.4508209228515625,1.5418659448623657,4.4292731285095215
4.357447147369385,1.6208745241165161,4.501099109649658
4.165910720825195,1.8483237028121948,4.563348293304443
3.993528366088867,2.1140801906585693,4.462791919708252
3.936067581176758,2.2361843585968018,4.484339714050293
3.8953661918640137,2.2888567447662354,4.37420654296875
3.9001545906066895,2.3989901542663574,4.469974517822266
3.9408559799194336,2.5115175247192383,4.4532151222229
3.936067581176758,2.612074136734009,4.522646903991699
3.7158010005950928,2.6144683361053467,4.548983097076416
3.6942532062530518,2.7078421115875244,4.742913722991943
3.3518824577331543,3.0166940689086914,4.908113479614258
3.2848446369171143,3.2561142444610596,5.011064052581787
3.1507694721221924,3.3446998596191406,4.946420669555664
2.9975404739379883,3.423708438873291,4.912901878356934
2.8227639198303223,3.471592426300049,5.023035049438477
2.454056739807129,3.5889084339141846,5.257667064666748
2.185906171798706,3.6176388263702393,5.39174222946167
2.0398597717285156,3.773261785507202,5.60722017288208
1.824381709098816,3.955221176147461,5.858611583709717
1.6136919260025024,4.3191399574279785,6.090848922729492
1.525106430053711,4.395754337310791,6.045359134674072
1.3096283674240112,4.343081951141357,6.107608318328857
1.1444283723831177,4.378994941711426,6.1315507888793945
0.933738648891449,4.424484729766846,6.354211330413818
0.7158663272857666,4.714183330535889,6.904877662658691
0.5482721924781799,5.303156852722168,7.086836814880371
0.4572925269603729,5.331887245178223,7.371747016906738
0.43335050344467163,5.2672438621521,7.659051418304443
0.40462008118629456,5.142745018005371,7.805097579956055
0.38307225704193115,5.20978307723999,8.216899871826172
0.2992752194404602,5.698200225830078,8.604761123657227
0.31603461503982544,6.777985095977783,9.35893440246582
-0.10055647045373917,7.007828235626221,9.622296333312988
-0.24181437492370605,6.8162922859191895,10.053253173828125
-0.5386953949928284,6.478709697723389,10.316615104675293
-0.5506663918495178,6.337451934814453,10.857705116271973
-0.5363011956214905,6.287173748016357,11.26950740814209
-0.2753331959247589,6.184223175048828,11.78665542602539
-0.3208230137825012,6.066906929016113,12.121843338012695
-0.4812345504760742,5.937620162963867,12.349292755126953
-0.6440402865409851,5.789179801940918,12.492944717407227
-0.7781155705451965,5.791574001312256,12.464214324951172
-0.8212111592292786,5.446808815002441,12.38759994506836
-0.7445967197418213,5.061342239379883,12.380416870117188
-0.7326257228851318,4.58968448638916,12.36365795135498
-0.6943184733390808,4.266467571258545,12.509703636169434
-0.8643068075180054,4.050989151000977,12.715604782104492
-0.8667010068893433,4.015076160430908,12.710816383361816
-0.8355764150619507,4.050989151000977,12.689269065856934
-0.8667010068893433,4.0078935623168945,12.497733116149902
-0.8690952062606812,3.9049429893493652,12.222399711608887
-0.912190854549408,3.7445313930511475,12.021286964416504
-0.993593692779541,3.5386300086975098,11.73398208618164
-1.0749965906143188,3.383007049560547,11.39400577545166
-0.9959878921508789,3.397372245788574,11.142614364624023
-0.7134721279144287,3.3518824577331543,10.927136421203613
-0.5291185975074768,3.450044631958008,10.639832496643066
-0.38546648621559143,3.337517261505127,10.508151054382324
-0.3519476354122162,3.2345664501190186,10.472238540649414
-0.4141969084739685,3.138798475265503,10.414777755737305
-0.5434837937355042,2.8778305053710938,10.323798179626465
-0.5363011956214905,2.7437551021575928,10.338163375854492
-0.4812345504760742,2.655169725418091,10.280701637268066
-0.42616790533065796,2.7748796939849854,10.376470565795898
-0.2777273952960968,2.9328970909118652,10.307038307189941
-0.1412578970193863,3.0190882682800293,10.345345497131348
-0.047884032130241394,3.069366693496704,10.469843864440918
-0.1173158809542656,3.2992098331451416,10.642226219177246
-0.16998831927776337,3.361459255218506,10.857705116271973
-0.26336219906806946,3.1675288677215576,11.044452667236328
-0.3423708379268646,2.9544448852539062,11.374852180480957
-0.49799394607543945,2.911349296569824,11.705251693725586
-0.8212111592292786,3.2178070545196533,11.927912712097168
-0.730231523513794,3.5218706130981445,12.057199478149414
-0.7038952708244324,4.065354347229004,12.42111873626709
-0.2825157940387726,4.194641590118408,12.588712692260742
-0.1604115068912506,4.632780075073242,12.708422660827637
-0.18914192914962769,5.118803024291992,12.823344230651855
-0.3687070608139038,5.406107425689697,12.871228218078613
-0.5339069962501526,5.521028995513916,12.978967666625977
-0.6823474764823914,5.674258232116699,13.196839332580566
-0.7086837291717529,5.456385612487793,13.15613842010498
-0.6967126727104187,5.272032260894775,12.988544464111328
-0.7493851184844971,5.363011837005615,12.804190635681152
-0.768538773059845,5.430049419403076,12.339715957641602
-0.42377370595932007,5.679046630859375,11.915942192077637
-0.14365209639072418,5.87776517868042,11.499350547790527
0.1173158809542656,5.9304375648498535,11.010933876037598
0.3208230137825012,5.959167957305908,10.577583312988281
0.35913026332855225,6.057330131530762,10.259154319763184
0.40701428055763245,5.868188381195068,10.120290756225586
0.44532153010368347,5.56173038482666,9.837775230407715
0.4812345504760742,5.188235282897949,9.677363395690918
0.5315127968788147,4.843470096588135,9.378087997436523
0.5793967843055725,4.448426723480225,8.96149730682373
0.7134721279144287,4.19224739074707,8.655038833618164
0.9193734526634216,3.9815573692321777,7.996633529663086
1.2330138683319092,3.9671921730041504,7.694964408874512
1.4772224426269531,4.077325344085693,7.225700855255127
1.6424223184585571,4.225766181945801,6.890512466430664
1.7597382068634033,4.350264549255371,6.375759124755859
1.845929503440857,4.434061527252197,5.870582580566406
2.121262788772583,4.242525577545166,5.3342814445495605
2.3774423599243164,3.825934410095215,5.2480902671813965
2.4420857429504395,3.5482068061828613,5.094861030578613
2.425326347351074,3.1699230670928955,5.032611846923828
2.296039342880249,2.7724854946136475,4.802768707275391
2.298433542251587,2.4420857429504395,4.613626480102539
2.4372973442077637,2.7724854946136475,4.244919776916504
2.832340717315674,3.157952070236206,3.6966474056243896
3.2824504375457764,3.3734302520751953,3.1507694721221924
3.648763418197632,3.5410242080688477,2.762908697128296
3.847482204437256,3.4572272300720215,2.5450363159179688
4.0294413566589355,3.2297780513763428,2.561795711517334
4.106055736541748,3.1100680828094482,2.4420857429504395
4.079719543457031,2.9161376953125,2.6192567348480225
3.9480385780334473,2.7054479122161865,2.7293899059295654
3.73016619682312,2.695871114730835,2.8850131034851074
3.737348794937134,2.4372973442077637,2.875436305999756
3.8379054069519043,2.3271639347076416,2.9735984802246094
3.7205893993377686,2.099714994430542,2.983175277709961
3.5913026332855225,1.987187385559082,3.2393548488616943
3.466804027557373,1.8363527059555054,3.5218706130981445
3.3901896476745605,1.8579005002975464,3.5410242080688477
3.555389642715454,1.8507179021835327,3.643975019454956
3.6583402156829834,1.7142484188079834,3.9240965843200684
3.5051112174987793,1.5131354331970215,4.094084739685059
3.2776620388031006,1.1755530834197998,4.355052947998047
2.9975404739379883,0.9217676520347595,4.944026470184326
2.719813108444214,0.6775590777397156,5.339069843292236
2.4827871322631836,0.38067805767059326,5.731719017028809
2.4588451385498047,0.13168109953403473,6.069301128387451
2.8155810832977295,0.014365210197865963,6.325480937957764
3.2154128551483154,-0.06703764945268631,6.380547523498535
3.555389642715454,-0.1628057211637497,6.265625953674316
3.3662476539611816,-0.304063618183136,6.5050458908081055
2.741360902786255,-0.4692635238170624,6.88332986831665
2.1116859912872314,-0.7398083209991455,8.001421928405762
1.5705963373184204,-0.6823474764823914,8.614337921142578
1.3215993642807007,-0.9050082564353943,9.133879661560059
1.5059528350830078,-1.0223240852355957,9.090784072875977
1.9512743949890137,-1.2210428714752197,9.040505409240723
2.298433542251587,-1.5442601442337036,9.157821655273438
2.3343467712402344,-2.1140801906585693,9.334992408752441
2.027888774871826,-2.9472622871398926,9.813833236694336
1.479616641998291,-3.466804027557373,11.216835021972656
1.1563993692398071,-3.227383852005005,12.045228958129883
1.235408067703247,-3.071760892868042,12.234370231628418
1.4317326545715332,-2.942473888397217,12.346898078918457
1.6112977266311646,-2.6671407222747803,12.528857231140137
1.8052281141281128,-2.2409727573394775,12.502521514892578
1.9321208000183105,-1.8842366933822632,12.72757625579834
2.0901381969451904,-1.5155296325683594,13.103466033935547
2.2649147510528564,-1.2976573705673218,13.752294540405273
2.3558945655822754,-1.237802267074585,14.271836280822754
2.365471363067627,-1.0055646896362305,14.568717002868652
2.3774423599243164,-0.9864110946655273,14.609418869018555
2.2026655673980713,-1.0342950820922852,14.298172950744629
2.099714994430542,-0.6009446382522583,13.802573204040527
2.1523873805999756,-0.395043283700943,13.204022407531738
2.145204782485962,-0.2944868206977844,12.813767433166504
2.516305923461914,0.24181437492370605,12.720393180847168
2.762908697128296,0.14604631066322327,12.610260009765625
2.875436305999756,-0.20111294090747833,12.674903869628906
2.784456491470337,-0.11252748221158981,13.18008041381836
2.5258827209472656,0.31603461503982544,13.694833755493164
2.5306711196899414,0.6727706789970398,13.572729110717773
2.4229321479797363,0.9552865028381348,13.172897338867188
2.557007312774658,0.9864110946655273,12.995726585388184
2.6240451335906982,1.0103530883789062,12.96460247039795
2.5977089405059814,1.3048399686813354,13.316550254821777
2.33913516998291,1.7405846118927002,13.795390129089355
2.027888774871826,1.8291701078414917,13.888764381408691
1.7884687185287476,1.6831238269805908,13.864822387695312
1.8267759084701538,1.6735470294952393,13.931859970092773
1.9033904075622559,1.7621324062347412,14.195221900939941
1.7405846118927002,1.9943699836730957,14.427459716796875
1.6663644313812256,2.2625205516815186,14.410699844360352
1.3407529592514038,2.255337953567505,14.374787330627441
1.216254472732544,2.6001031398773193,14.36521053314209
1.2066776752471924,3.141192674636841,14.283807754516602
1.1755530834197998,3.3470940589904785,14.044386863708496
1.173158884048462,3.552995204925537,13.543998718261719
1.0438719987869263,3.557783842086792,13.055582046508789
0.871489405632019,3.555389642715454,12.856863021850586
0.9217676520347595,3.471592426300049,12.519280433654785
0.9265560507774353,3.4093432426452637,12.2990140914917
1.070208191871643,3.378218650817871,11.99255657196045
1.1659762859344482,3.2800562381744385,11.647790908813477
1.1276689767837524,3.315969467163086,11.362881660461426
1.2282254695892334,3.3734302520751953,11.073183059692383
1.2617442607879639,3.5410242080688477,10.72841739654541
1.1516109704971313,3.469198226928711,10.450690269470215
1.1899182796478271,3.687070608139038,10.153809547424316
1.4101848602294922,3.751713991165161,9.861717224121094
1.577778935432434,4.098873138427734,9.555258750915527
1.745373010635376,4.395754337310791,9.229647636413574
1.699883222579956,4.714183330535889,8.803479194641113
1.6855180263519287,4.922478675842285,8.382100105285645
1.9321208000183105,5.104437828063965,8.157045364379883
2.231395959854126,5.322310447692871,7.841010570526123
2.3558945655822754,5.521028995513916,7.682993412017822
2.3295583724975586,5.8657941818237305,7.5417351722717285
2.2601263523101807,5.9088897705078125,7.3238630294799805
2.212242364883423,5.9304375648498535,6.687005519866943
2.4229321479797363,5.702988624572754,6.2632317543029785
2.477998733520508,5.724536418914795,5.961562156677246
2.5474305152893066,5.770026206970215,5.779603004455566
2.6216509342193604,5.849034786224365,5.604825973510742
2.63362193107605,5.7556610107421875,5.506663799285889
2.6455929279327393,5.758055210113525,5.497087001800537
2.671929121017456,5.6191911697387695,5.293580055236816
2.736572504043579,5.286397457122803,5.106832027435303
2.7676970958709717,5.070919036865234,4.766855716705322
2.6815059185028076,4.774038314819336,4.6255974769592285
2.655169725418091,4.692635536193848,4.390965938568115
2.734178304672241,4.49870491027832,4.060565948486328
2.8586769104003906,4.383783340454102,3.845088005065918
2.959233283996582,4.0078935623168945,3.6727054119110107
2.9879636764526367,3.797203779220581,3.5865142345428467
3.136404275894165,3.5649664402008057,3.663128614425659
3.098097085952759,3.3925838470458984,3.794809579849243
3.1962592601776123,3.272873640060425,3.885789394378662
3.1435868740081787,2.9281086921691895,3.950432777404785
3.265691041946411,2.6599581241607666,3.993528366088867
3.4787750244140625,2.207453966140747,3.9217023849487305
3.6727054119110107,2.231395959854126,3.804386615753174
3.847482204437256,2.2912509441375732,3.780444383621216
3.931279182434082,2.434903144836426,3.7181951999664307
3.993528366088867,2.2361843585968018,3.799597978591919
3.845088005065918,1.9608511924743652,3.928884983062744
3.955221176147461,1.6184803247451782,4.110844135284424
3.8762125968933105,1.292868971824646,4.1874589920043945
3.758896589279175,1.1037269830703735,4.2760443687438965
3.5266590118408203,0.8738836050033569,4.486733913421631
3.426102638244629,0.8212111592292786,4.55616569519043
3.3303346633911133,0.5985504388809204,4.651933670043945
3.2992098331451416,0.35673606395721436,4.932055473327637
3.134010076522827,0.2059013396501541,5.272032260894775
2.9903578758239746,-0.047884032130241394,5.731719017028809
2.959233283996582,-0.2777273952960968,6.160281181335449
2.9065608978271484,-0.45489832758903503,6.54574728012085
2.784456491470337,-0.6823474764823914,6.842628479003906
2.5306711196899414,-0.8236053586006165,7.101202011108398
2.38462495803833,-0.6584054827690125,7.319074630737305
2.1571757793426514,-0.4165911078453064,7.486668586730957
1.9560627937316895,-0.2561795711517334,8.075642585754395
1.9560627937316895,-0.43095630407333374,8.449137687683105
1.8602946996688843,-0.49559974670410156,8.889671325683594
1.7501614093780518,-0.3998316824436188,9.253589630126953
1.5514427423477173,-0.5051765441894531,9.550470352172852
1.3934253454208374,-0.7374141216278076,9.674968719482422
1.237802267074585,-0.9145850539207458,9.859322547912598
1.1683704853057861,-0.9911994934082031,10.216058731079102
1.2401964664459229,-0.933738648891449,10.733205795288086
1.5729905366897583,-0.8331822156906128,11.164162635803223
1.7501614093780518,-0.9864110946655273,11.338939666748047
1.656787633895874,-1.0821791887283325,11.362881660461426
1.5394717454910278,-1.0438719987869263,11.458649635314941
1.2952631711959839,-1.0342950820922852,11.803414344787598
0.8978256583213806,-0.8379706144332886,12.327744483947754
0.6919242739677429,-0.5171475410461426,12.861651420593262
0.5147533416748047,-0.6536170840263367,13.206416130065918
0.5315127968788147,-0.689530074596405,13.352462768554688
0.7781155705451965,-0.7661445140838623,13.225569725036621
0.8475474119186401,-0.9983820915222168,12.90714168548584
0.6655880808830261,-1.0654197931289673,12.808979034423828
0.8690952062606812,-0.9696516990661621,12.689269065856934
1.0271124839782715,-1.1228805780410767,12.792220115661621
1.0127472877502441,-1.4844050407409668,13.136984825134277
0.9289502501487732,-1.766920804977417,13.204022407531738
0.7445967197418213,-1.7741034030914307,13.242329597473145
0.7996633648872375,-1.647210717201233,12.955025672912598
0.8403648138046265,-1.2521674633026123,13.002909660339355
1.1180921792984009,-0.5482721924781799,13.18008041381836
1.3958195447921753,-0.014365210197865963,13.275848388671875
1.8076223134994507,0.05985504388809204,13.057975769042969
1.9105730056762695,-0.16759411990642548,12.94305419921875
1.8387469053268433,-0.19153612852096558,12.952630996704102
1.8794482946395874,-0.13407529890537262,12.76109504699707
1.8794482946395874,0.1149216815829277,12.890381813049316
2.03507137298584,0.4596867263317108,13.15853214263916
2.0398597717285156,0.6703764796257019,13.232752799987793
1.9177556037902832,0.9552865028381348,13.441048622131348
1.8483237028121948,0.9816226959228516,13.620613098144531
1.6663644313812256,0.9576807022094727,13.761871337890625
1.5897499322891235,1.1180921792984009,13.66610336303711
1.625662922859192,1.678335428237915,13.883975982666016
1.625662922859192,2.164358377456665,13.862427711486816
1.6543933153152466,2.8778305053710938,13.797784805297852
1.647210717201233,2.7700912952423096,13.656526565551758
1.5729905366897583,2.607285737991333,13.433865547180176
1.4413094520568848,2.5713725090026855,13.438653945922852
1.414973258972168,2.5977089405059814,13.239935874938965
1.4221558570861816,2.6791117191314697,13.029245376586914
1.4221558570861816,2.652775526046753,12.734758377075195
1.4317326545715332,2.6671407222747803,12.358869552612305
1.4221558570861816,2.5713725090026855,11.973402976989746
1.4317326545715332,2.6623523235321045,11.848904609680176
1.5682021379470825,2.6431987285614014,11.710040092468262
1.7190368175506592,2.449268341064453,11.310209274291992
1.800439715385437,2.2146365642547607,11.063606262207031
1.8148049116134644,1.9081788063049316,10.642226219177246
1.8626888990402222,1.7190368175506592,10.177751541137695
1.7046716213226318,1.5969325304031372,10.065223693847656
1.6208745241165161,1.8291701078414917,9.974244117736816
1.577778935432434,2.205059766769409,9.883264541625977
1.7741034030914307,2.3535003662109375,9.516951560974121
1.8267759084701538,2.6384103298187256,9.339780807495117
1.9345149993896484,2.7293899059295654,9.198522567749023
2.078166961669922,2.851494312286377,8.956708908081055
2.164358377456665,2.894589900970459,8.753201484680176
2.276885747909546,3.0765492916107178,8.69334602355957
2.3558945655822754,3.380612850189209,8.525752067565918
2.4660277366638184,3.643975019454956,8.56884765625
2.4660277366638184,3.885789394378662,8.540117263793945
2.4636335372924805,4.113238334655762,8.480262756347656
2.456450939178467,4.201824188232422,8.327033042907715
2.408566951751709,4.225766181945801,8.20732307434082
2.456450939178467,4.170699596405029,8.14028549194336
2.5665841102600098,4.14915132522583,8.075642585754395
2.693476915359497,4.005499362945557,8.056488990783691
2.765302896499634,3.88818359375,7.920019149780273
2.7940332889556885,3.737348794937134,7.922413349151611
2.8802247047424316,3.732560396194458,7.979874134063721
2.853888511657715,3.6391866207122803,7.829039573669434
2.8826189041137695,3.643975019454956,7.800309181213379
2.8347349166870117,3.5410242080688477,7.8314337730407715
2.8155810832977295,3.514688014984131,7.738059997558594
2.8179752826690674,3.6152446269989014,7.4555439949035645
2.9975404739379883,3.8355112075805664,7.2352776527404785
3.4620156288146973,4.146757125854492,6.754043102264404
3.579331636428833,4.20421838760376,6.646304130554199
3.6391866207122803,4.175487995147705,6.63433313369751
3.620033025741577,4.129997730255127,6.610390663146973
3.5410242080688477,4.079719543457031,6.5265936851501465
3.6846764087677,3.9480385780334473,6.3973069190979
3.9193081855773926,4.046200752258301,6.356605529785156
4.003105163574219,4.125209331512451,6.236895561218262
4.110844135284424,4.19224739074707,6.0836663246154785
4.240131378173828,4.0964789390563965,5.995080947875977
4.180276393890381,3.950432777404785,5.868188381195068
4.189853191375732,3.9193081855773926,5.700594425201416
4.323928356170654,3.773261785507202,5.616796970367432
4.417302131652832,3.7158010005950928,5.655104637145996
4.467580318450928,3.7277719974517822,5.698200225830078
4.4292731285095215,3.6296098232269287,5.628767967224121
4.469974517822266,3.4835634231567383,5.681440830230713
4.477157115936279,3.2632968425750732,5.621585369110107
4.4532151222229,3.064578056335449,5.4228668212890625
4.3191399574279785,2.9328970909118652,5.202600479125977
4.51067590713501,2.9664158821105957,5.039794445037842
4.709394931793213,2.920926094055176,4.934449672698975
5.006275653839111,2.8155810832977295,4.697423934936523
4.924872875213623,2.494758129119873,4.659116744995117
4.709394931793213,2.2146365642547607,4.685452938079834
4.517858505249023,2.008735179901123,4.771644115447998
4.304774761199951,1.9967641830444336,4.960785865783691
4.268861770629883,1.8962076902389526,5.25527286529541
4.153939723968506,1.6304513216018677,5.3582234382629395
4.017470359802246,1.50355863571167,5.556941986083984
3.998316764831543,1.4987702369689941,5.458779811859131
4.084507942199707,1.7621324062347412,5.439626216888428
4.206612586975098,1.8387469053268433,5.30076265335083
4.390965938568115,1.7932571172714233,5.274426460266113
4.359841346740723,1.6041151285171509,5.353435039520264
4.2760443687438965,1.4867992401123047,5.693411827087402
4.1611223220825195,1.3886369466781616,6.045359134674072
4.041412353515625,1.1803414821624756,6.289567947387695
3.885789394378662,0.9983820915222168,6.682217121124268
3.713406801223755,0.7565677165985107,6.8378400802612305
3.383007049560547,0.828393816947937,6.7708024978637695
3.203441858291626,0.8906430602073669,6.751648902893066
3.1316158771514893,1.0773907899856567,6.852205276489258
3.6152446269989014,1.0462661981582642,6.813898086547852
3.9480385780334473,1.048660397529602,7.036558628082275
4.079719543457031,0.8834604024887085,7.285555839538574
3.9887399673461914,0.5506663918495178,7.343016624450684
3.6822822093963623,0.1843535304069519,7.6351094245910645
3.272873640060425,0.09816227108240128,8.037335395812988
3.112462282180786,0.07900865375995636,8.300697326660156
2.913743495941162,0.040701430290937424,8.367734909057617
3.0621838569641113,-0.21547815203666687,8.427590370178223
3.35667085647583,-0.5003881454467773,8.547300338745117
3.555389642715454,-0.751779317855835,8.700529098510742
3.598485231399536,-0.6416460275650024,9.220070838928223
3.332728862762451,-0.43095630407333374,9.581595420837402
3.095702886581421,-0.48602294921875,9.835380554199219
2.7461493015289307,-0.9289502501487732,9.84256362915039
2.365471363067627,-1.455674648284912,10.18493366241455
2.0638017654418945,-1.7046716213226318,10.505757331848145
1.8579005002975464,-1.4844050407409668,10.936713218688965
1.9632453918457031,-0.7015010714530945,11.389217376708984
2.4875755310058594,0.002394201699644327,11.619060516357422
2.9328970909118652,0.06224924325942993,11.870451927185059
2.786850690841675,-0.5482721924781799,12.18648624420166
2.3487119674682617,-0.8619126081466675,12.040440559387207
1.9512743949890137,-0.8427590131759644,11.930307388305664
1.7190368175506592,-0.2849099934101105,12.27507209777832
1.8722656965255737,0.5913678407669067,12.380416870117188
2.145204782485962,1.0223240852355957,12.416330337524414
1.920149803161621,1.1540051698684692,12.447454452514648
1.889025092124939,1.1492167711257935,12.435483932495117
1.8052281141281128,1.0630255937576294,12.409147262573242
1.6831238269805908,1.1994950771331787,12.126631736755371
1.7501614093780518,1.2737152576446533,11.894393920898438
1.6735470294952393,1.2330138683319092,11.54244613647461
1.678335428237915,1.2425906658172607,11.434707641601562
1.5394717454910278,1.5394717454910278,11.51611042022705
1.455674648284912,1.8746598958969116,11.386823654174805
1.3910311460494995,1.8339585065841675,11.26950740814209
1.4269442558288574,1.6950948238372803,11.05642318725586
1.4987702369689941,1.4652514457702637,10.884040832519531
1.5538369417190552,1.4269442558288574,10.532093048095703
1.6304513216018677,1.3527239561080933,10.299856185913086
1.6735470294952393,1.2234370708465576,10.390835762023926
1.2665326595306396,1.7621324062347412,10.986991882324219
1.1061211824417114,2.0638017654418945,11.113883972167969
1.015141487121582,2.1308395862579346,11.08994197845459
1.0103530883789062,2.322375535964966,11.252747535705566
0.8595184087753296,2.4157495498657227,11.192893028259277
0.6320692300796509,2.612074136734009,11.111490249633789
0.47884035110473633,2.7988216876983643,11.094730377197266
0.40701428055763245,3.045424461364746,11.338939666748047
0.21787235140800476,3.5266590118408203,11.370063781738281
0.12689268589019775,3.6990416049957275,11.384428977966309
0.05506663769483566,3.706224203109741,11.334151268005371
-0.1388636976480484,3.6128504276275635,11.279084205627441
-0.3974374830722809,3.7660791873931885,11.137825965881348
-0.45010992884635925,3.9217023849487305,10.984597206115723
-0.5099649429321289,4.02465295791626,10.83855152130127
-0.40222588181495667,4.156333923339844,10.647014617919922
-0.42616790533065796,4.05817174911499,10.615890502929688
-0.37828385829925537,4.134786128997803,10.436325073242188
-0.38546648621559143,4.230554580688477,10.237606048583984
-0.4381389021873474,4.206612586975098,10.132261276245117
-0.2825157940387726,4.2951979637146,9.99339771270752
-0.38546648621559143,4.469974517822266,9.725247383117676
-0.44771572947502136,4.402936935424805,9.354146003723145
-0.43095630407333374,4.383783340454102,9.21288776397705
-0.4668693244457245,4.390965938568115,9.064447402954102
-0.4429273009300232,4.587290287017822,8.760383605957031
-0.37828385829925537,4.546588897705078,8.542511940002441
-0.1628057211637497,4.378994941711426,8.403648376464844
-0.021547814831137657,4.381389141082764,8.238448143005371
-0.0933738648891449,4.333505153656006,8.293514251708984
-0.0454898327589035,4.311957359313965,8.169015884399414
-0.1628057211637497,4.290409564971924,8.090007781982422
-0.1843535304069519,4.256890773773193,8.054094314575195
-0.15322890877723694,4.355052947998047,7.951143741607666
-0.10055647045373917,4.288015365600586,7.94635534286499
-0.0694318488240242,4.244919776916504,7.934384346008301
-0.014365210197865963,4.280832767486572,7.886500358581543
-0.17238251864910126,4.314351558685303,7.841010570526123
-0.19632454216480255,4.402936935424805,7.7883381843566895
-0.17477671802043915,4.359841346740723,7.793126583099365
-0.12449848651885986,4.455609321594238,7.728483200073242
-0.22266076505184174,4.78122091293335,7.778761386871338
-0.31124621629714966,5.238513469696045,7.848193168640137
-0.16759411990642548,5.449203014373779,7.975085735321045
-0.1149216815829277,4.896142482757568,8.08043098449707
-0.20111294090747833,4.714183330535889,8.176198959350586
-0.44771572947502136,4.78122091293335,8.305485725402832
-0.4141969084739685,4.836287498474121,8.346187591552734
-0.35673606395721436,4.790797710418701,8.245630264282227
-0.19393034279346466,4.67827033996582,8.29590892791748
-0.16759411990642548,4.467580318450928,8.422801971435547
-0.05985504388809204,4.345476150512695,8.51138687133789
-0.06703764945268631,4.299986362457275,8.609549522399902
-0.07900865375995636,4.244919776916504,8.633491516113281
0.004788403399288654,4.268861770629883,8.695740699768066
0.0071826050989329815,4.146757125854492,8.755595207214355
0.05506663769483566,4.182670593261719,8.700529098510742
0.1388636976480484,4.335899353027344,8.702922821044922
0.090979665517807,4.436455726623535,8.611943244934082
0.12928688526153564,4.378994941711426,8.59997272491455
0.1412578970193863,4.355052947998047,8.671798706054688
0.08140286058187485,4.299986362457275,8.676587104797363
0.181959331035614,4.378994941711426,8.683769226074219
0.15083470940589905,4.316745758056641,8.762778282165527
0.002394201699644327,4.316745758056641,8.652645111083984
0.004788403399288654,4.410119533538818,8.652645111083984
-0.021547814831137657,4.5154643058776855,8.592789649963379
0.0,4.5394062995910645,8.62630844116211
-0.019153613597154617,4.51067590713501,8.640673637390137
0.023942016065120697,4.534617900848389,8.678980827331543
-0.08379705995321274,4.446032524108887,8.676587104797363
0.038307227194309235,4.5154643058776855,8.650250434875488
0.019153613597154617,4.395754337310791,8.556877136230469
-0.019153613597154617,4.580107688903809,8.676587104797363
0.004788403399288654,4.54419469833374,8.485051155090332
-0.07182604819536209,4.620809078216553,8.506598472595215
-0.12449848651885986,4.651933670043945,8.461109161376953
-0.07182604819536209,4.594472885131836,8.513781547546387
-0.08858546614646912,4.489128112792969,8.542511940002441
-0.0071826050989329815,4.611232280731201,8.537723541259766
0.019153613597154617,4.608838081359863,8.56884765625
-0.004788403399288654,4.4939165115356445,8.530540466308594
-0.07900865375995636,4.63517427444458,8.437167167663574
-0.05746084079146385,4.644751071929932,8.470685958862305
-0.1628057211637497,4.699818134307861,8.456320762634277
-0.06224924325942993,4.551377296447754,8.53293514251709
-0.22026655077934265,4.592078685760498,8.60236644744873
-0.17717093229293823,4.632780075073242,8.525752067565918
-0.15801730751991272,4.596867084503174,8.576030731201172
-0.2082955539226532,4.649539470672607,8.492233276367188
-0.17477671802043915,4.592078685760498,8.437167167663574
-0.09816227108240128,4.63517427444458,8.451532363891602
-0.08619125932455063,4.659116744995117,8.489839553833008
-0.15562310814857483,4.60165548324585,8.422801971435547
-0.06703764945268631,4.726154327392578,8.508993148803711
-0.28969839215278625,4.41969633102417,4.81473970413208
-0.4668693244457245,5.671864032745361,7.967903137207031
0.13168109953403473,4.285621166229248,7.915230751037598
-0.1149216815829277,4.6950297355651855,8.154650688171387
-0.24420857429504395,4.534617900848389,8.336610794067383
-0.3256114423274994,4.280832767486572,8.573636054992676
-0.7589619159698486,4.501099109649658,8.860940933227539
-1.9081788063049316,4.264073371887207,8.80587387084961
-0.038307227194309235,4.817133903503418,8.683769226074219
0.4572925269603729,5.298368453979492,8.468291282653809
-0.2537853717803955,4.982333660125732,8.544905662536621
-0.5386953949928284,4.496310710906982,8.71728801727295
-0.2106897532939911,4.55616569519043,8.796297073364258
-0.28969839215278625,4.5825018882751465,8.815450668334961
-0.42856210470199585,4.5394062995910645,8.815450668334961
-0.2944868206977844,4.613626480102539,8.731653213500977
-0.21547815203666687,4.812345504760742,8.62630844116211
-0.21547815203666687,4.81473970413208,8.592789649963379
-0.17956513166427612,4.692635536193848,8.51138687133789
-0.1628057211637497,4.659116744995117,8.497021675109863
-0.1412578970193863,4.728548526763916,8.463502883911133
-0.15562310814857483,4.680664539337158,8.537723541259766
-0.16519992053508759,4.608838081359863,8.571242332458496
-0.304063618183136,4.639962673187256,8.49941635131836
-0.27054479718208313,4.611232280731201,8.559270858764648
-0.3495534360408783,4.692635536193848,8.583212852478027
-0.26815059781074524,4.72376012802124,8.53532886505127
-0.31603461503982544,4.766855716705322,8.501810073852539
-0.3687070608139038,4.7405195236206055,8.453926086425781
-0.33997663855552673,4.714183330535889,8.446743965148926
-0.3423708379268646,4.7836151123046875,8.47547435760498
-0.3758896589279175,4.704606533050537,8.456320762634277
-0.2968810200691223,4.72376012802124,8.461109161376953
-0.363918662071228,4.639962673187256,8.451532363891602
-0.31364041566848755,4.659116744995117,8.453926086425781
-0.33518823981285095,4.632780075073242,8.492233276367188
-0.2585737705230713,4.558559894561768,8.494627952575684
-0.2346317619085312,4.51067590713501,8.492233276367188
-0.20350714027881622,4.613626480102539,8.53532886505127
-0.2106897532939911,4.659116744995117,8.47547435760498
-0.22026655077934265,4.6734819412231445,8.549694061279297
-0.2082955539226532,4.584896087646484,8.528146743774414
-0.13168109953403473,4.613626480102539,8.547300338745117
-0.2537853717803955,4.577713489532471,8.59997272491455
-0.21547815203666687,4.637568473815918,8.60236644744873
-0.16998831927776337,4.63517427444458,8.597578048706055
-0.22505496442317963,4.630385875701904,8.62630844116211
-0.1604115068912506,4.651933670043945,8.56645393371582
-0.28969839215278625,4.596867084503174,8.607154846191406
-0.20111294090747833,4.728548526763916,8.585607528686523
-0.23942017555236816,4.671087741851807,8.576030731201172
-0.27054479718208313,4.707000732421875,8.616731643676758
-0.24181437492370605,4.666299343109131,8.683769226074219
-0.2801215946674347,4.675876140594482,8.597578048706055
-0.2777273952960968,4.663905143737793,8.53532886505127
-0.22266076505184174,4.6255974769592285,8.494627952575684
-0.28969839215278625,4.58968448638916,8.561665534973145
-0.21547815203666687,4.616020679473877,8.588001251220703
-0.2849099934101105,4.525041103363037,8.576030731201172
-0.2801215946674347,4.565742492675781,8.520963668823242
-0.2777273952960968,4.534617900848389,8.523358345031738
-0.21787235140800476,4.537012100219727,8.547300338745117
-0.21787235140800476,4.508281707763672,8.494627952575684
-0.22026655077934265,4.55616569519043,8.597578048706055
-0.2346317619085312,4.577713489532471,8.580819129943848
-0.21308395266532898,4.575319290161133,8.473079681396484
-0.24420857429504395,4.51067590713501,8.525752067565918
-0.16998831927776337,4.632780075073242,8.508993148803711
-0.2537853717803955,4.558559894561768,8.56884765625
-0.19153612852096558,4.6040496826171875,8.544905662536621
-0.21787235140800476,4.608838081359863,8.592789649963379
-0.20350714027881622,4.563348293304443,8.578424453735352
-0.22026655077934265,4.5825018882751465,8.631096839904785
-0.3280056416988373,4.644751071929932,8.614337921142578
-0.27054479718208313,4.572925090789795,8.635885238647461
-0.304063618183136,4.644751071929932,8.576030731201172
-0.272938996553421,4.716577529907227,8.552088737487793
-0.35913026332855225,4.685452938079834,8.583212852478027
-0.36152446269989014,4.790797710418701,8.564059257507324
-0.28730419278144836,4.809951305389404,8.564059257507324
-0.33279404044151306,4.786009311676025,8.544905662536621
-0.28969839215278625,4.807557106018066,8.516175270080566
-0.33279404044151306,4.850652694702148,8.547300338745117
-0.35673606395721436,4.608838081359863,6.971915245056152
-0.13168109953403473,4.5154643058776855,7.673416614532471
0.043095629662275314,4.994304656982422,8.429984092712402
-0.19632454216480255,4.702212333679199,8.480262756347656
-0.8140285611152649,4.587290287017822,8.738836288452148
-0.8188169598579407,4.338293552398682,8.60236644744873
0.031124621629714966,4.4939165115356445,8.645462036132812
-0.3064578175544739,4.572925090789795,8.705317497253418
-0.569819986820221,4.460397720336914,8.729259490966797
-0.47884035110473633,4.359841346740723,8.722076416015625
-0.35434186458587646,4.400542736053467,8.69334602355957
-0.3519476354122162,4.46518611907959,8.652645111083984
-0.3711012601852417,4.563348293304443,8.597578048706055
-0.3447650372982025,4.661510944366455,8.640673637390137
2.6815059185028076,0.12689268589019775,9.5624418258667
2.765302896499634,0.2992752194404602,9.344569206237793
2.8227639198303223,0.4141969084739685,9.253589630126953
2.6671407222747803,0.1412578970193863,9.308655738830566
2.5282769203186035,0.14365209639072418,9.100360870361328
2.6862943172454834,0.3734954595565796,9.23443603515625
2.6839001178741455,0.2968810200691223,9.299078941345215
2.8778305053710938,0.6153098344802856,9.473855972290039
2.6886885166168213,0.4357447028160095,9.296685218811035
2.782062292098999,0.3663128614425659,9.32302188873291
2.8658595085144043,0.4381389021873474,9.26795482635498
2.7988216876983643,0.5386953949928284,9.272743225097656
2.829946517944336,0.5315127968788147,9.32541561126709
2.911349296569824,0.6560112833976746,9.327810287475586
2.8395233154296875,0.6751648783683777,9.229647636413574
2.8419175148010254,0.5171475410461426,9.191340446472168
2.82515811920166,0.5746083855628967,9.229647636413574
2.8802247047424316,0.47644615173339844,9.361329078674316
2.853888511657715,0.35434186458587646,9.464279174804688
2.8443117141723633,0.33518823981285095,9.402029991149902
2.892195701599121,0.26336219906806946,9.622296333312988
2.8658595085144043,0.33279404044151306,9.62947940826416
3.0166940689086914,0.49799394607543945,9.586383819580078
3.0334534645080566,0.4189853072166443,9.564835548400879
2.9927520751953125,0.3758896589279175,9.57441234588623
3.028665065765381,0.3471592366695404,9.485827445983887
3.047818660736084,0.4668693244457245,9.627084732055664
3.0119056701660156,0.4405331015586853,9.576807022094727
2.964021682739258,0.4812345504760742,9.485827445983887
2.9328970909118652,0.4620809257030487,9.409213066101074
2.918531894683838,0.5506663918495178,9.411606788635254
2.8850131034851074,0.5339069962501526,9.351752281188965
2.985569477081299,0.5793967843055725,9.351752281188965
2.9759926795959473,0.4812345504760742,9.318233489990234
3.0861260890960693,0.6991068720817566,9.330204010009766
3.114856481552124,0.5506663918495178,9.330204010009766
2.964021682739258,0.3687070608139038,9.39245319366455
2.9089550971984863,0.524330198764801,9.248801231384277
3.0526070594787598,0.5530605912208557,9.241618156433105
2.999934673309326,0.5746083855628967,9.366117477416992
3.071760892868042,0.6248866319656372,9.423578262329102
3.1196448802948,0.6033388376235962,9.296685218811035
3.160346269607544,0.6177040338516235,9.354146003723145
3.246537446975708,0.5817909836769104,9.435548782348633
3.272873640060425,0.3495534360408783,9.5624418258667
3.3016040325164795,0.4405331015586853,9.643844604492188
3.5266590118408203,0.586579442024231,9.99339771270752
3.8522706031799316,1.0199298858642578,10.256759643554688
4.244919776916504,1.3479355573654175,10.625467300415039
4.927267074584961,1.3718775510787964,10.742782592773438
5.3582234382629395,1.8602946996688843,10.72602367401123
5.882553577423096,2.207453966140747,11.398794174194336
5.913678169250488,2.1978771686553955,12.24394702911377
5.353435039520264,1.479616641998291,12.629413604736328
5.166687488555908,0.26575639843940735,13.283031463623047
5.197812080383301,0.45250412821769714,12.840104103088379
5.329493045806885,1.8483237028121948,12.876016616821289
5.473145008087158,2.2864625453948975,12.629413604736328
5.51624059677124,2.2912509441375732,12.60547161102295
5.647922039031982,1.8339585065841675,12.751518249511719
5.722142219543457,1.7932571172714233,12.78503704071045
5.535394191741943,1.742978811264038,12.442666053771973
4.7405195236206055,1.05105459690094,12.045228958129883
4.299986362457275,0.2777273952960968,11.78904914855957
3.7229835987091064,0.38307225704193115,11.398794174194336
3.7708675861358643,0.4118026793003082,10.781089782714844
3.7469255924224854,0.7876923680305481,10.160991668701172
3.624821424484253,1.2545616626739502,9.346963882446289
3.4763808250427246,1.0654197931289673,8.83699893951416
3.1531636714935303,-0.1604115068912506,8.516175270080566
2.0661959648132324,-1.3072341680526733,7.99184513092041
1.3958195447921753,-1.0630255937576294,7.905653953552246
1.2186486721038818,-0.7182605266571045,7.7428483963012695
1.4173674583435059,-0.30885201692581177,7.754819393157959
1.946485996246338,1.0462661981582642,7.757213592529297
1.5514427423477173,0.43095630407333374,7.357381820678711
1.1276689767837524,-0.2585737705230713,6.947973251342773
0.7158663272857666,-0.49320554733276367,6.780379295349121
0.569819986820221,-0.4692635238170624,6.7923502922058105
0.9193734526634216,-0.15322890877723694,7.441178798675537
0.8331822156906128,0.3423708379268646,7.328651428222656
0.7230489253997803,0.17477671802043915,7.072471618652344
0.7493851184844971,0.27054479718208313,7.12035608291626
0.933738648891449,0.3998316824436188,7.053318023681641
0.8068459630012512,-0.047884032130241394,7.0557122230529785
0.8978256583213806,0.05267243832349777,7.441178798675537
0.7350199222564697,-0.31603461503982544,7.769184589385986
0.5171475410461426,-0.6655880808830261,8.152256965637207
0.5506663918495178,-0.7374141216278076,8.252813339233398
0.7781155705451965,-0.5889736413955688,8.501810073852539
0.7086837291717529,-0.7469909191131592,8.516175270080566
0.9840168952941895,-0.22266076505184174,8.789113998413086
0.8858546018600464,-0.36152446269989014,8.516175270080566
0.7781155705451965,-0.45250412821769714,8.573636054992676
1.2401964664459229,0.11013327538967133,8.927978515625
1.5897499322891235,0.2944868206977844,9.093177795410156
1.1324573755264282,-0.689530074596405,9.255983352661133
1.1468225717544556,-0.790086567401886,9.296685218811035
1.3335703611373901,-0.5147533416748047,9.50737476348877
1.290474772453308,-0.3878606855869293,9.576807022094727
1.5945383310317993,-0.2298433631658554,9.701305389404297
1.237802267074585,-0.4357447028160095,9.402029991149902
1.357512354850769,-0.38307225704193115,9.349357604980469
1.522712230682373,-0.033518824726343155,9.32302188873291
1.886630892753601,0.11013327538967133,9.634267807006836
1.41257905960083,-0.47405192255973816,9.583989143371582
1.3192051649093628,-0.6584054827690125,9.469067573547363
1.3694833517074585,-0.47165772318840027,9.488221168518066
1.5442601442337036,-0.17717093229293823,9.476250648498535
1.8100165128707886,-0.21787235140800476,9.50498104095459
1.900996208190918,-0.07900865375995636,9.5408935546875
1.9081788063049316,-0.0071826050989329815,9.50498104095459
2.10210919380188,0.1628057211637497,9.437943458557129
1.7908629179000854,0.07422025501728058,9.337387084960938
1.8363527059555054,-0.021547814831137657,9.279925346374512
1.9057846069335938,0.14844051003456116,9.332598686218262
1.8938134908676147,-0.019153613597154617,9.485827445983887
1.9177556037902832,0.06703764945268631,9.785101890563965
1.8794482946395874,0.22744916379451752,9.770736694335938
1.8938134908676147,0.28969839215278625,9.773131370544434
1.9249382019042969,0.35913026332855225,9.821015357971191
2.008735179901123,0.3902548849582672,9.62947940826416
1.8411411046981812,0.2992752194404602,9.603142738342285
1.9177556037902832,0.2537853717803955,9.770736694335938
1.7142484188079834,0.031124621629714966,9.581595420837402
1.867477297782898,0.002394201699644327,9.531316757202148
1.8315643072128296,-0.026336219161748886,9.481039047241211
1.8770540952682495,0.004788403399288654,9.557653427124023
1.8507179021835327,-0.08140286058187485,9.548076629638672
1.9033904075622559,-0.1867477297782898,9.318233489990234
1.9177556037902832,0.047884032130241394,9.476250648498535
1.8746598958969116,0.17717093229293823,9.35893440246582
1.7142484188079834,0.016759412363171577,9.425971984863281
1.8914192914962769,0.22744916379451752,9.531316757202148
1.778891921043396,0.031124621629714966,9.390059471130371
1.8171991109848022,0.08379705995321274,9.29189682006836
1.800439715385437,-0.17238251864910126,9.26795482635498
2.0231003761291504,0.06224924325942993,9.23682975769043
2.049436569213867,-0.011971008032560349,9.308655738830566
2.1068975925445557,0.06464344263076782,9.361329078674316
2.1284453868865967,0.07900865375995636,9.373299598693848
2.2697031497955322,0.23702596127986908,9.548076629638672
2.274491548538208,0.28730419278144836,9.50498104095459
2.494758129119873,0.44771572947502136,9.576807022094727
2.4396915435791016,0.5027823448181152,9.59596061706543
2.3032219409942627,0.40701428055763245,9.694122314453125
2.3367409706115723,0.5482721924781799,9.725247383117676
2.188300371170044,0.524330198764801,9.660603523254395
2.166752576828003,0.43095630407333374,9.524134635925293
2.145204782485962,0.5889736413955688,9.481039047241211
2.2146365642547607,0.5554547905921936,9.442731857299805
2.255337953567505,0.6153098344802856,9.543288230895996
2.233790159225464,0.5506663918495178,9.610325813293457
2.1978771686553955,0.4405331015586853,9.732429504394531
2.1284453868865967,0.26336219906806946,9.873687744140625
2.1787235736846924,0.21308395266532898,9.952696800231934
2.33913516998291,0.2825157940387726,9.962273597717285
2.477998733520508,0.17238251864910126,9.943120002746582
2.3558945655822754,0.05027823522686958,9.907206535339355
2.4827871322631836,-0.009576806798577309,9.742006301879883
